trial angleIni angleLandmark direction durationRampingIni durationFinal sizeLandmark radiusLandmark durationRampingFinal durationIni same radius duration durationRampingLand freq size response responseTime
1 213.051331357 147.692407935 -1 90.0 120.0 3.0 6.5 90.0 120.0 True 4.0 180.0 120.0 2.25 3.0 -1872.69866864 2.58668684959
2 134.826700407 195.973366221 -1 90.0 120.0 3.0 6.5 90.0 120.0 True 4.0 180.0 120.0 2.0 3.0 -2841.17329959 4.14113378525
3 112.616429789 28.5322057819 -1 90.0 120.0 3.0 6.5 90.0 120.0 False 4.0 180.0 120.0 2.25 3.0 -3140.88357021 4.02320408821
4 286.114543857 203.3951211 1 90.0 120.0 3.0 6.5 90.0 120.0 False 4.0 180.0 120.0 1.25 3.0 2119.86454386 4.07586407661
5 219.891719825 349.475143338 1 90.0 120.0 3.0 6.5 90.0 120.0 True 4.0 180.0 120.0 1.75 3.0 2115.14171982 3.01604986191
6 128.276782641 324.42091323 1 90.0 120.0 3.0 6.5 90.0 120.0 True 4.0 180.0 120.0 1.0 3.0 1055.27678264 2.58273911476
7 160.192095678 120.500513846 -1 90.0 120.0 3.0 6.5 90.0 120.0 True 4.0 180.0 120.0 1.25 3.0 -1388.55790432 3.44905400276
8 286.599901787 167.720061196 1 90.0 120.0 3.0 6.5 90.0 120.0 True 4.0 180.0 120.0 2.5 3.0 2656.59990179 2.64204096794
9 264.880740114 169.064785619 -1 90.0 120.0 3.0 6.5 90.0 120.0 False 4.0 180.0 120.0 2.5 3.0 -2540.11925989 3.1244289875
10 256.493942927 318.029152668 1 90.0 120.0 3.0 6.5 90.0 120.0 True 4.0 180.0 120.0 2.75 3.0 3605.99394293 3.39059209824
11 103.236974342 242.99820985 -1 90.0 120.0 3.0 6.5 90.0 120.0 False 4.0 180.0 120.0 1.75 3.0 -1561.01302566 2.64295291901
12 306.189478204 250.003408775 -1 90.0 120.0 3.0 6.5 90.0 120.0 True 4.0 180.0 120.0 2.75 3.0 -4231.3105218 4.59066510201
13 147.522525999 34.0805344897 -1 90.0 120.0 3.0 6.5 90.0 120.0 False 4.0 180.0 120.0 1.0 3.0 -797.477474001 2.63253998756
14 121.355335836 181.243127881 -1 90.0 120.0 3.0 6.5 90.0 120.0 False 4.0 180.0 120.0 2.75 3.0 -3030.14466416 3.1908159256
15 342.293821111 229.773313772 1 90.0 120.0 3.0 6.5 90.0 120.0 False 4.0 180.0 120.0 1.5 3.0 2731.79382111 4.42773795128
16 108.26587528 33.4648143097 -1 90.0 120.0 3.0 6.5 90.0 120.0 True 4.0 180.0 120.0 0.75 3.0 -636.48412472 2.76631498337
17 304.077951918 160.234288114 1 90.0 120.0 3.0 6.5 90.0 120.0 True 4.0 180.0 120.0 2.0 3.0 2626.07795192 3.22716498375
18 161.352137561 3.07291320653 1 90.0 120.0 3.0 6.5 90.0 120.0 False 4.0 180.0 120.0 2.75 3.0 3477.85213756 3.35755586624
19 295.875300801 165.805793054 -1 90.0 120.0 3.0 6.5 90.0 120.0 False 4.0 180.0 120.0 1.5 3.0 -1297.1246992 2.95708203316
20 333.110545316 271.610448557 1 90.0 120.0 3.0 6.5 90.0 120.0 False 4.0 180.0 120.0 1.75 3.0 2349.11054532 3.20751404762
21 208.382170182 264.167191869 1 90.0 120.0 3.0 6.5 90.0 120.0 True 4.0 180.0 120.0 2.25 3.0 3779.13217018 4.4160130024
22 275.94605697 227.032787906 1 90.0 120.0 3.0 6.5 90.0 120.0 False 4.0 180.0 120.0 1.0 3.0 1271.94605697 2.77462601662
23 78.6297941638 213.412257226 1 90.0 120.0 3.0 6.5 90.0 120.0 True 4.0 180.0 120.0 0.75 3.0 902.129794164 3.05059194565
24 177.855726565 341.917797493 -1 90.0 120.0 3.0 6.5 90.0 120.0 True 4.0 180.0 120.0 2.5 3.0 -3647.14427344 4.25740003586
25 322.458450245 27.3011083652 -1 90.0 120.0 3.0 6.5 90.0 120.0 True 4.0 180.0 120.0 1.5 3.0 -1558.54154976 3.49202084541
26 342.205116624 269.921978602 1 90.0 120.0 3.0 6.5 90.0 120.0 False 4.0 180.0 120.0 2.5 3.0 3657.20511662 3.69203305244
27 352.26768335 125.58531178 1 90.0 120.0 3.0 6.5 90.0 120.0 True 4.0 180.0 120.0 1.25 3.0 2264.76768335 4.25775003433
28 217.950145773 180.906430853 -1 90.0 120.0 3.0 6.5 90.0 120.0 False 4.0 180.0 120.0 0.75 3.0 -515.549854227 2.72454285622
29 80.7652678107 239.386790542 -1 90.0 120.0 3.0 6.5 90.0 120.0 False 4.0 180.0 120.0 1.25 3.0 -1040.48473219 2.49924397469
30 33.5927841883 48.8598513189 1 90.0 120.0 3.0 6.5 90.0 120.0 True 4.0 180.0 120.0 1.5 3.0 2760.59278419 5.0578520298
31 234.652943056 59.7629827322 -1 90.0 120.0 3.0 6.5 90.0 120.0 True 4.0 180.0 120.0 1.75 3.0 -2710.59705694 4.68348002434
32 80.6252775362 206.823469875 1 90.0 120.0 3.0 6.5 90.0 120.0 False 4.0 180.0 120.0 2.25 3.0 2058.37527754 2.44973897934
33 331.640707378 60.7759424423 -1 90.0 120.0 3.0 6.5 90.0 120.0 False 4.0 180.0 120.0 2.0 3.0 -1666.35929262 2.77660012245
34 106.261904929 190.188604889 1 90.0 120.0 3.0 6.5 90.0 120.0 False 4.0 180.0 120.0 2.0 3.0 2644.26190493 3.53266596794
35 14.5191264638 312.787333325 -1 90.0 120.0 3.0 6.5 90.0 120.0 True 4.0 180.0 120.0 1.0 3.0 -1158.48087354 3.26550912857
36 261.577732249 198.026945483 1 90.0 120.0 3.0 6.5 90.0 120.0 False 4.0 180.0 120.0 0.75 3.0 950.077732249 2.55230402946
37 99.2576621218 342.490363102 1 90.0 120.0 3.0 6.5 90.0 120.0 False 4.0 180.0 120.0 2.5 3.0 4696.75766212 5.11659383774
38 295.098524361 184.74210666 1 90.0 120.0 3.0 6.5 90.0 120.0 False 4.0 180.0 120.0 1.25 3.0 1746.34852436 3.23206210136
39 90.9123172283 300.229217575 -1 90.0 120.0 3.0 6.5 90.0 120.0 False 4.0 180.0 120.0 1.25 3.0 -1907.83768277 4.44997596741
40 320.611890165 173.878670431 1 90.0 120.0 3.0 6.5 90.0 120.0 True 4.0 180.0 120.0 1.5 3.0 1774.11189016 2.69892096519
41 212.209139973 225.694951678 -1 90.0 120.0 3.0 6.5 90.0 120.0 False 4.0 180.0 120.0 2.75 3.0 -4061.29086003 4.32427597046
42 220.526374964 61.1635186264 1 90.0 120.0 3.0 6.5 90.0 120.0 True 4.0 180.0 120.0 2.5 3.0 4533.02637496 4.79918694496
43 63.0030714332 256.693431575 -1 90.0 120.0 3.0 6.5 90.0 120.0 True 4.0 180.0 120.0 0.75 3.0 -611.996928567 2.50742602348
44 245.092382332 207.811821022 1 90.0 120.0 3.0 6.5 90.0 120.0 True 4.0 180.0 120.0 0.75 3.0 1064.09238233 3.04014611244
45 100.693008642 144.184309264 -1 90.0 120.0 3.0 6.5 90.0 120.0 True 4.0 180.0 120.0 2.25 3.0 -2457.55699136 3.16628694534
46 124.535618971 201.56858111 -1 90.0 120.0 3.0 6.5 90.0 120.0 False 4.0 180.0 120.0 2.5 3.0 -4030.46438103 4.62387299538
47 209.817157174 224.627162045 -1 90.0 120.0 3.0 6.5 90.0 120.0 False 4.0 180.0 120.0 1.0 3.0 -786.182842826 2.77539014816
48 241.220179555 178.904730475 -1 90.0 120.0 3.0 6.5 90.0 120.0 True 4.0 180.0 120.0 1.0 3.0 -718.779820445 2.67470121384
49 200.358421759 92.3388909562 1 90.0 120.0 3.0 6.5 90.0 120.0 False 4.0 180.0 120.0 2.75 3.0 4457.35842176 4.30680203438
50 226.273291384 226.05404242 -1 90.0 120.0 3.0 6.5 90.0 120.0 False 4.0 180.0 120.0 0.75 3.0 -498.226708616 2.68582987785
51 314.090609389 17.749583151 -1 90.0 120.0 3.0 6.5 90.0 120.0 False 4.0 180.0 120.0 1.75 3.0 -2967.15939061 5.21489405632
52 185.462679864 123.190414751 1 90.0 120.0 3.0 6.5 90.0 120.0 False 4.0 180.0 120.0 1.5 3.0 1589.46267986 2.60795378685
53 110.422984553 170.350993268 -1 90.0 120.0 3.0 6.5 90.0 120.0 True 4.0 180.0 120.0 2.0 3.0 -3153.57701545 4.54100990295
54 80.187460336 20.4338656561 1 90.0 120.0 3.0 6.5 90.0 120.0 True 4.0 180.0 120.0 2.25 3.0 4312.43746034 5.23284602165
55 108.165692517 283.409642308 -1 90.0 120.0 3.0 6.5 90.0 120.0 False 4.0 180.0 120.0 2.0 3.0 -2621.83430748 3.79933810234
56 304.458820292 254.528510394 -1 90.0 120.0 3.0 6.5 90.0 120.0 True 4.0 180.0 120.0 1.5 3.0 -1873.54117971 4.04124498367
57 340.914622027 131.404380048 1 90.0 120.0 3.0 6.5 90.0 120.0 False 4.0 180.0 120.0 2.0 3.0 3118.91462203 3.86477303505
58 229.938181781 135.849232201 1 90.0 120.0 3.0 6.5 90.0 120.0 True 4.0 180.0 120.0 1.0 3.0 2104.93818178 5.21548986435
59 41.827142831 309.584786023 -1 90.0 120.0 3.0 6.5 90.0 120.0 False 4.0 180.0 120.0 1.5 3.0 -2149.67285717 4.06521892548
60 186.117057045 350.876159602 -1 90.0 120.0 3.0 6.5 90.0 120.0 False 4.0 180.0 120.0 2.25 3.0 -3013.38294296 3.9576010704
61 26.2879350793 266.381982963 1 90.0 120.0 3.0 6.5 90.0 120.0 True 4.0 180.0 120.0 1.25 3.0 1155.03793508 2.51655602455
62 199.868802288 106.264262973 -1 90.0 120.0 3.0 6.5 90.0 120.0 True 4.0 180.0 120.0 1.25 3.0 -1671.38119771 4.16603207588
63 124.424519828 134.798353735 1 90.0 120.0 3.0 6.5 90.0 120.0 False 4.0 180.0 120.0 1.0 3.0 1387.42451983 3.51695084572
64 342.388395262 197.898039404 -1 90.0 120.0 3.0 6.5 90.0 120.0 True 4.0 180.0 120.0 2.75 3.0 -3172.11160474 3.55827498436
65 342.344172053 200.308621323 1 90.0 120.0 3.0 6.5 90.0 120.0 False 4.0 180.0 120.0 0.75 3.0 929.594172053 2.18300414085
66 299.806555702 103.432789309 1 90.0 120.0 3.0 6.5 90.0 120.0 True 4.0 180.0 120.0 2.75 3.0 5852.0565557 5.61620092392
67 312.934638304 117.861511913 1 90.0 120.0 3.0 6.5 90.0 120.0 False 4.0 180.0 120.0 2.25 3.0 2493.1846383 2.69996190071
68 2.72874910683 49.9139943622 1 90.0 120.0 3.0 6.5 90.0 120.0 False 4.0 180.0 120.0 1.75 3.0 3199.97874911 5.08235383034
69 84.158864453 112.024353027 -1 90.0 120.0 3.0 6.5 90.0 120.0 True 4.0 180.0 120.0 1.75 3.0 -3013.34113555 4.92535495758
70 116.021349777 87.6835672088 1 90.0 120.0 3.0 6.5 90.0 120.0 True 4.0 180.0 120.0 1.75 3.0 2478.52134978 3.75844287872
71 165.972468575 330.713414251 1 90.0 120.0 3.0 6.5 90.0 120.0 True 4.0 180.0 120.0 2.0 3.0 4155.97246857 5.55032896996
72 31.1097846222 56.9824970069 -1 90.0 120.0 3.0 6.5 90.0 120.0 True 4.0 180.0 120.0 2.5 3.0 -3538.89021538 3.97426986694
73 308.810199855 63.484052976 -1 90.0 120.0 3.0 6.5 90.0 120.0 True 4.0 180.0 120.0 2.5 3.0 -3336.18980015 4.05131006241
74 120.012132088 233.463463682 -1 90.0 120.0 3.0 6.5 90.0 120.0 True 4.0 180.0 120.0 1.25 3.0 -1642.48786791 3.92453289032
75 154.734152403 168.794593277 1 90.0 120.0 3.0 6.5 90.0 120.0 True 4.0 180.0 120.0 2.75 3.0 4287.9841524 4.18266606331
76 264.002739887 340.631781325 -1 90.0 120.0 3.0 6.5 90.0 120.0 False 4.0 180.0 120.0 1.25 3.0 -1033.49726011 2.89105796814
77 289.503941058 309.972162789 1 90.0 120.0 3.0 6.5 90.0 120.0 False 4.0 180.0 120.0 1.5 3.0 1905.00394106 2.99860215187
78 81.2366760881 109.459967619 -1 90.0 120.0 3.0 6.5 90.0 120.0 False 4.0 180.0 120.0 2.25 3.0 -2207.01332391 2.82556819916
79 62.1799055735 187.197340687 -1 90.0 120.0 3.0 6.5 90.0 120.0 False 4.0 180.0 120.0 1.75 3.0 None None
80 310.492405349 313.543327646 1 90.0 120.0 3.0 6.5 90.0 120.0 False 4.0 180.0 120.0 2.25 3.0 2652.74240535 2.89927077293
81 91.6678051276 31.285474369 1 90.0 120.0 3.0 6.5 90.0 120.0 True 4.0 180.0 120.0 2.25 3.0 2157.16780513 2.5575978756
82 215.029253504 25.0607955933 1 90.0 120.0 3.0 6.5 90.0 120.0 False 4.0 180.0 120.0 0.75 3.0 1007.0292535 2.94162797928
83 236.01533242 106.377986772 1 90.0 120.0 3.0 6.5 90.0 120.0 False 4.0 180.0 120.0 2.75 3.0 4658.01533242 4.47469091415
84 338.188442584 123.931901342 1 90.0 120.0 3.0 6.5 90.0 120.0 False 4.0 180.0 120.0 1.75 3.0 1844.93844258 2.3934109211
85 3.31491522243 237.024961003 -1 90.0 120.0 3.0 6.5 90.0 120.0 True 4.0 180.0 120.0 2.0 3.0 -2306.68508478 3.21558499336
86 26.3171197214 245.565550522 1 90.0 120.0 3.0 6.5 90.0 120.0 True 4.0 180.0 120.0 1.5 3.0 2402.31711972 4.40244889259
87 354.028516941 77.577010114 1 90.0 120.0 3.0 6.5 90.0 120.0 False 4.0 180.0 120.0 1.25 3.0 2187.77851694 4.08229613304
88 48.9956580721 98.7880260475 1 90.0 120.0 3.0 6.5 90.0 120.0 True 4.0 180.0 120.0 2.0 3.0 None None
89 89.9016206284 333.898023043 -1 90.0 120.0 3.0 6.5 90.0 120.0 True 4.0 180.0 120.0 2.25 3.0 -72.0983793716 0.208168029785
90 354.462550212 126.068203112 1 90.0 120.0 3.0 6.5 90.0 120.0 False 4.0 180.0 120.0 2.5 3.0 2641.96255021 2.54393815994
91 209.963691101 269.085681034 1 90.0 120.0 3.0 6.5 90.0 120.0 False 4.0 180.0 120.0 1.0 3.0 1235.9636911 2.85706996918
92 212.232449176 95.3285033614 1 90.0 120.0 3.0 6.5 90.0 120.0 False 4.0 180.0 120.0 2.0 3.0 2300.23244918 2.90708208084
93 284.44906893 29.7142464606 1 90.0 120.0 3.0 6.5 90.0 120.0 True 4.0 180.0 120.0 1.25 3.0 1848.19906893 3.48250102997
94 117.306239373 183.99052413 -1 90.0 120.0 3.0 6.5 90.0 120.0 True 4.0 180.0 120.0 1.75 3.0 -1893.44376063 3.19919514656
95 250.659080737 290.583658152 1 90.0 120.0 3.0 6.5 90.0 120.0 True 4.0 180.0 120.0 1.75 3.0 2891.40908074 4.19855308533
96 331.583685956 23.9373236411 1 90.0 120.0 3.0 6.5 90.0 120.0 True 4.0 180.0 120.0 2.5 3.0 3991.58368596 4.0737760067
97 3.55593313651 283.511341232 -1 90.0 120.0 3.0 6.5 90.0 120.0 True 4.0 180.0 120.0 1.0 3.0 -791.444066863 2.21526908875
98 303.430960497 43.1071422581 -1 90.0 120.0 3.0 6.5 90.0 120.0 True 4.0 180.0 120.0 1.5 3.0 -1951.0690395 4.18144083023
99 268.670966378 210.4073636 -1 90.0 120.0 3.0 6.5 90.0 120.0 False 4.0 180.0 120.0 0.75 3.0 -471.579033622 2.74380302429
100 116.816050036 244.314317114 -1 90.0 120.0 3.0 6.5 90.0 120.0 False 4.0 180.0 120.0 1.0 3.0 -867.183949964 2.73562812805
101 275.52058067 64.7518061297 -1 90.0 120.0 3.0 6.5 90.0 120.0 False 4.0 180.0 120.0 1.5 3.0 -2064.47941933 4.33498311043
102 265.11249477 77.6639746897 -1 90.0 120.0 3.0 6.5 90.0 120.0 False 4.0 180.0 120.0 2.0 3.0 -3610.88750523 5.39045596123
103 36.8595856473 39.9176742233 -1 90.0 120.0 3.0 6.5 90.0 120.0 True 4.0 180.0 120.0 0.75 3.0 -676.390414353 2.64913415909
104 123.235143051 307.158816947 1 90.0 120.0 3.0 6.5 90.0 120.0 True 4.0 180.0 120.0 0.75 3.0 807.235143051 2.53479790688
105 244.904825615 227.500845969 -1 90.0 120.0 3.0 6.5 90.0 120.0 False 4.0 180.0 120.0 2.5 3.0 -3752.59517438 4.44962096214
106 37.2581512114 190.333191449 -1 90.0 120.0 3.0 6.5 90.0 120.0 False 4.0 180.0 120.0 2.75 3.0 -2619.24184879 2.69033002853
107 293.76324818 118.564698657 -1 90.0 120.0 3.0 6.5 90.0 120.0 True 4.0 180.0 120.0 2.75 3.0 -3410.48675182 3.74930691719
108 118.424072467 298.608152487 1 90.0 120.0 3.0 6.5 90.0 120.0 True 4.0 180.0 120.0 1.0 3.0 994.424072467 2.44069600105
