trial angleIni angleLandmark direction durationRampingIni durationFinal sizeLandmark radiusLandmark durationRampingFinal durationIni same radius duration durationRampingLand freq size response responseTime
1 355.460024723 120.609880594 1 90.0 120.0 3.0 6.5 90.0 120.0 True 4.0 180.0 120.0 2.75 3.0 3605.96002472 3.29372811317
2 67.5796840264 252.749083067 1 90.0 120.0 3.0 6.5 90.0 120.0 True 4.0 180.0 120.0 1.5 3.0 2475.07968403 4.4609439373
3 202.378867082 219.352935393 -1 90.0 120.0 3.0 6.5 90.0 120.0 False 4.0 180.0 120.0 3.25 3.0 -3629.37113292 3.2817928791
4 246.928487359 25.5623391518 1 90.0 120.0 3.0 6.5 90.0 120.0 False 4.0 180.0 120.0 2.75 3.0 4347.17848736 4.15045881271
5 220.634601658 151.633447649 -1 90.0 120.0 3.0 6.5 90.0 120.0 False 4.0 180.0 120.0 1.5 3.0 -2393.86539834 4.84444618225
6 212.122148184 226.078353035 -1 90.0 120.0 3.0 6.5 90.0 120.0 False 4.0 180.0 120.0 3.0 3.0 -2676.87785182 2.68173384666
7 78.4182529542 344.942963173 1 90.0 120.0 3.0 6.5 90.0 120.0 True 4.0 180.0 120.0 3.25 3.0 3773.66825295 3.16696715355
8 21.0354359472 268.542249876 -1 90.0 120.0 3.0 6.5 90.0 120.0 False 4.0 180.0 120.0 2.0 3.0 -3278.96456405 4.59189295769
9 253.965040818 141.358693597 1 90.0 120.0 3.0 6.5 90.0 120.0 True 4.0 180.0 120.0 0.75 3.0 1023.46504082 2.85068202019
10 358.909452453 235.574121432 -1 90.0 120.0 3.0 6.5 90.0 120.0 False 4.0 180.0 120.0 1.0 3.0 -817.090547547 3.27348899841
11 37.3890222418 216.17279241 1 90.0 120.0 3.0 6.5 90.0 120.0 False 4.0 180.0 120.0 1.75 3.0 2363.13902224 3.70036196709
12 129.42168525 139.773263378 -1 90.0 120.0 3.0 6.5 90.0 120.0 True 4.0 180.0 120.0 1.5 3.0 -1855.07831475 3.68162512779
13 137.872929546 67.4884573577 1 90.0 120.0 3.0 6.5 90.0 120.0 False 4.0 180.0 120.0 1.0 3.0 1160.87292955 2.85017418861
14 40.1024495699 144.846759916 -1 90.0 120.0 3.0 6.5 90.0 120.0 True 4.0 180.0 120.0 3.0 3.0 -2767.89755043 2.60093688965
15 159.919376597 335.382332529 -1 90.0 120.0 3.0 6.5 90.0 120.0 False 4.0 180.0 120.0 1.75 3.0 -2433.5806234 4.1240029335
16 357.258617939 182.929363541 1 90.0 120.0 3.0 6.5 90.0 120.0 False 4.0 180.0 120.0 2.0 3.0 3837.25861794 4.84197688103
17 210.902960593 306.199889315 1 90.0 120.0 3.0 6.5 90.0 120.0 True 4.0 180.0 120.0 3.0 3.0 3504.90296059 3.05763602257
18 319.984248343 33.7824632652 -1 90.0 120.0 3.0 6.5 90.0 120.0 False 4.0 180.0 120.0 1.25 3.0 -1412.51575166 3.8567340374
19 200.649092837 264.473838239 -1 90.0 120.0 3.0 6.5 90.0 120.0 True 4.0 180.0 120.0 2.75 3.0 -4081.10090716 4.33232498169
20 222.763190049 106.444896361 1 90.0 120.0 3.0 6.5 90.0 120.0 False 4.0 180.0 120.0 1.25 3.0 2611.51319005 5.31732988358
21 136.535421789 182.084908774 -1 90.0 120.0 3.0 6.5 90.0 120.0 True 4.0 180.0 120.0 2.25 3.0 -3737.96457821 4.78582787514
22 141.563618743 221.102812466 -1 90.0 120.0 3.0 6.5 90.0 120.0 True 4.0 180.0 120.0 3.25 3.0 -3972.93638126 3.52482891083
23 201.816742929 299.040897673 -1 90.0 120.0 3.0 6.5 90.0 120.0 True 4.0 180.0 120.0 2.5 3.0 -3458.18325707 4.07443284988
24 12.8638888244 10.9508930841 -1 90.0 120.0 3.0 6.5 90.0 120.0 True 4.0 180.0 120.0 1.75 3.0 -2743.38611118 4.37764716148
25 159.090720227 167.409543014 -1 90.0 120.0 3.0 6.5 90.0 120.0 False 4.0 180.0 120.0 2.5 3.0 -3980.90927977 4.60745406151
26 169.668387975 314.66032452 -1 90.0 120.0 3.0 6.5 90.0 120.0 False 4.0 180.0 120.0 0.75 3.0 -743.831612025 3.39077210426
27 290.217930086 22.7317405731 1 90.0 120.0 3.0 6.5 90.0 120.0 True 4.0 180.0 120.0 3.5 3.0 4983.71793009 3.73180508614
28 206.18057416 125.723767574 -1 90.0 120.0 3.0 6.5 90.0 120.0 True 4.0 180.0 120.0 3.5 3.0 -2943.81942584 2.50709915161
29 111.183831286 357.179691065 1 90.0 120.0 3.0 6.5 90.0 120.0 True 4.0 180.0 120.0 1.0 3.0 1782.18383129 4.64869904518
30 136.543567066 199.005051761 1 90.0 120.0 3.0 6.5 90.0 120.0 False 4.0 180.0 120.0 3.5 3.0 5754.04356707 4.46641206741
31 214.604573049 206.458647233 1 90.0 120.0 3.0 6.5 90.0 120.0 False 4.0 180.0 120.0 2.25 3.0 3069.85457305 3.53259301186
32 287.80580989 5.09855690163 -1 90.0 120.0 3.0 6.5 90.0 120.0 True 4.0 180.0 120.0 0.75 3.0 -346.69419011 2.35251998901
33 31.2357179476 202.141708572 1 90.0 120.0 3.0 6.5 90.0 120.0 False 4.0 180.0 120.0 2.5 3.0 3796.23571795 4.19177508354
34 8.69196464699 137.245690188 -1 90.0 120.0 3.0 6.5 90.0 120.0 True 4.0 180.0 120.0 2.0 3.0 -2907.30803535 4.05764818192
35 303.953049883 82.7599108588 -1 90.0 120.0 3.0 6.5 90.0 120.0 False 4.0 180.0 120.0 2.75 3.0 -4662.54695012 5.02350687981
36 331.816600519 146.637714235 1 90.0 120.0 3.0 6.5 90.0 120.0 True 4.0 180.0 120.0 2.5 3.0 4104.31660052 4.19847607613
37 118.822487951 106.27666035 1 90.0 120.0 3.0 6.5 90.0 120.0 False 4.0 180.0 120.0 3.25 3.0 2800.07248795 2.29383897781
38 88.318861932 232.225046816 -1 90.0 120.0 3.0 6.5 90.0 120.0 False 4.0 180.0 120.0 3.5 3.0 -5319.18113807 4.2929880619
39 54.0059325614 105.632602165 -1 90.0 120.0 3.0 6.5 90.0 120.0 True 4.0 180.0 120.0 1.25 3.0 -1697.24406744 3.89362001419
40 310.503411427 33.728260885 1 90.0 120.0 3.0 6.5 90.0 120.0 False 4.0 180.0 120.0 3.0 3.0 5386.50341143 4.70159196854
41 316.460314055 182.946379775 -1 90.0 120.0 3.0 6.5 90.0 120.0 True 4.0 180.0 120.0 1.0 3.0 -1462.53968595 4.95023918152
42 85.8055726659 187.723573334 1 90.0 120.0 3.0 6.5 90.0 120.0 True 4.0 180.0 120.0 2.25 3.0 3784.80557267 4.57337093353
43 300.496123074 266.522791622 1 90.0 120.0 3.0 6.5 90.0 120.0 False 4.0 180.0 120.0 0.75 3.0 1328.74612307 3.81561493874
44 318.753438847 182.422960313 1 90.0 120.0 3.0 6.5 90.0 120.0 True 4.0 180.0 120.0 1.75 3.0 3999.00343885 5.84979915619
45 92.3205905294 207.853133719 1 90.0 120.0 3.0 6.5 90.0 120.0 False 4.0 180.0 120.0 1.5 3.0 1869.82059053 3.29330706596
46 29.0494453442 131.834240824 1 90.0 120.0 3.0 6.5 90.0 120.0 True 4.0 180.0 120.0 2.0 3.0 2231.04944534 3.06620502472
47 123.116422864 210.730986731 1 90.0 120.0 3.0 6.5 90.0 120.0 True 4.0 180.0 120.0 1.25 3.0 1626.86642286 3.34955787659
48 114.710216638 255.186440202 -1 90.0 120.0 3.0 6.5 90.0 120.0 False 4.0 180.0 120.0 2.25 3.0 -2720.28978336 3.50884079933
49 177.924286096 126.309499863 -1 90.0 120.0 3.0 6.5 90.0 120.0 False 4.0 180.0 120.0 2.5 3.0 -3849.5757139 4.47637701035
50 76.0099104834 94.9663364474 1 90.0 120.0 3.0 6.5 90.0 120.0 False 4.0 180.0 120.0 3.0 3.0 4054.00991048 3.68487596512
51 312.312074432 112.762882127 -1 90.0 120.0 3.0 6.5 90.0 120.0 True 4.0 180.0 120.0 1.0 3.0 -764.687925568 2.99844312668
52 206.986120906 182.847557758 -1 90.0 120.0 3.0 6.5 90.0 120.0 False 4.0 180.0 120.0 3.0 3.0 -3411.01387909 3.35822701454
53 20.2904872754 276.437365383 1 90.0 120.0 3.0 6.5 90.0 120.0 True 4.0 180.0 120.0 1.75 3.0 2225.29048728 3.50676107407
54 107.555389411 103.363995856 -1 90.0 120.0 3.0 6.5 90.0 120.0 False 4.0 180.0 120.0 1.0 3.0 -828.444610589 2.60818600655
55 172.479696796 52.9655860211 -1 90.0 120.0 3.0 6.5 90.0 120.0 False 4.0 180.0 120.0 2.25 3.0 -2878.5203032 3.77486491203
56 304.087785343 323.837294394 1 90.0 120.0 3.0 6.5 90.0 120.0 True 4.0 180.0 120.0 2.5 3.0 3836.58778534 3.93358302116
57 2.65082118227 125.931976011 -1 90.0 120.0 3.0 6.5 90.0 120.0 False 4.0 180.0 120.0 1.75 3.0 -2464.84917882 3.9231569767
58 305.744531606 13.970150462 -1 90.0 120.0 3.0 6.5 90.0 120.0 False 4.0 180.0 120.0 2.0 3.0 -2904.25546839 4.46051287651
59 102.777124043 168.334948881 1 90.0 120.0 3.0 6.5 90.0 120.0 False 4.0 180.0 120.0 1.5 3.0 2042.27712404 3.59825396538
60 162.597046503 282.321745312 -1 90.0 120.0 3.0 6.5 90.0 120.0 True 4.0 180.0 120.0 0.75 3.0 -586.652953497 2.78227901459
61 276.463166294 137.185323935 -1 90.0 120.0 3.0 6.5 90.0 120.0 True 4.0 180.0 120.0 3.25 3.0 -2921.53683371 2.7420270443
62 279.044670203 43.4073027596 -1 90.0 120.0 3.0 6.5 90.0 120.0 True 4.0 180.0 120.0 1.75 3.0 -2550.7053298 4.49949812889
63 233.806582418 246.714501719 1 90.0 120.0 3.0 6.5 90.0 120.0 False 4.0 180.0 120.0 2.0 3.0 2981.80658242 3.82404303551
64 163.961236529 309.136464905 1 90.0 120.0 3.0 6.5 90.0 120.0 True 4.0 180.0 120.0 3.25 3.0 3985.96123653 3.27437782288
65 300.350186869 307.932032607 -1 90.0 120.0 3.0 6.5 90.0 120.0 False 4.0 180.0 120.0 0.75 3.0 -406.149813131 2.61797404289
66 326.760379911 256.506636155 1 90.0 120.0 3.0 6.5 90.0 120.0 True 4.0 180.0 120.0 1.25 3.0 1886.76037991 3.47388887405
67 70.4667046949 62.1239014568 1 90.0 120.0 3.0 6.5 90.0 120.0 False 4.0 180.0 120.0 2.5 3.0 3602.96670469 3.93265390396
68 341.820594563 92.7550801941 1 90.0 120.0 3.0 6.5 90.0 120.0 False 4.0 180.0 120.0 3.25 3.0 3734.82059456 2.90793013573
69 0.832428048996 15.8815622614 1 90.0 120.0 3.0 6.5 90.0 120.0 True 4.0 180.0 120.0 1.5 3.0 2124.83242805 3.9408800602
70 50.5898239228 232.435887575 1 90.0 120.0 3.0 6.5 90.0 120.0 False 4.0 180.0 120.0 2.25 3.0 2764.08982392 3.35801696777
71 201.296467727 264.281232837 1 90.0 120.0 3.0 6.5 90.0 120.0 True 4.0 180.0 120.0 2.25 3.0 2428.79646773 2.7589571476
72 56.1432093959 191.939225045 -1 90.0 120.0 3.0 6.5 90.0 120.0 True 4.0 180.0 120.0 2.0 3.0 -2469.8567906 3.51547694206
73 231.807589117 311.876247263 1 90.0 120.0 3.0 6.5 90.0 120.0 False 4.0 180.0 120.0 1.0 3.0 1353.80758912 3.12563300133
74 354.63777862 78.5548043046 1 90.0 120.0 3.0 6.5 90.0 120.0 True 4.0 180.0 120.0 2.75 3.0 3489.63777862 3.16760516167
75 353.072268068 260.181976264 -1 90.0 120.0 3.0 6.5 90.0 120.0 False 4.0 180.0 120.0 1.25 3.0 -1401.92773193 3.90776801109
76 57.8683522048 249.86042406 -1 90.0 120.0 3.0 6.5 90.0 120.0 True 4.0 180.0 120.0 3.0 3.0 -2993.1316478 2.83182501793
77 128.402295893 265.907569247 1 90.0 120.0 3.0 6.5 90.0 120.0 True 4.0 180.0 120.0 3.5 3.0 3362.40229589 2.56839394569
78 318.736147404 283.387270056 -1 90.0 120.0 3.0 6.5 90.0 120.0 False 4.0 180.0 120.0 2.75 3.0 -3204.0138526 3.56029105186
79 206.312197987 267.402949367 -1 90.0 120.0 3.0 6.5 90.0 120.0 True 4.0 180.0 120.0 1.5 3.0 -1715.18780201 3.55988383293
80 194.578864118 284.466115912 1 90.0 120.0 3.0 6.5 90.0 120.0 True 4.0 180.0 120.0 0.75 3.0 808.828864118 2.28213500977
81 102.878904008 122.974940991 -1 90.0 120.0 3.0 6.5 90.0 120.0 False 4.0 180.0 120.0 3.5 3.0 -3561.62109599 2.91602492332
82 252.171051094 76.8888460423 1 90.0 120.0 3.0 6.5 90.0 120.0 True 4.0 180.0 120.0 1.0 3.0 1500.17105109 3.47509098053
83 260.112407948 70.5560369347 1 90.0 120.0 3.0 6.5 90.0 120.0 False 4.0 180.0 120.0 1.75 3.0 2134.36240795 2.97565603256
84 315.308677246 68.7725392927 1 90.0 120.0 3.0 6.5 90.0 120.0 True 4.0 180.0 120.0 3.0 3.0 3789.30867725 3.22374796867
85 122.344453379 207.226847154 1 90.0 120.0 3.0 6.5 90.0 120.0 False 4.0 180.0 120.0 0.75 3.0 927.844453379 2.99149894714
86 304.111588827 215.249506122 -1 90.0 120.0 3.0 6.5 90.0 120.0 True 4.0 180.0 120.0 3.5 3.0 -4399.88841117 3.73434400558
87 5.88946992396 37.5986284138 -1 90.0 120.0 3.0 6.5 90.0 120.0 True 4.0 180.0 120.0 2.75 3.0 -4176.86053008 4.23280882835
88 303.328665346 5.73814746649 -1 90.0 120.0 3.0 6.5 90.0 120.0 False 4.0 180.0 120.0 1.5 3.0 -1834.17133465 3.96562004089
89 279.325344666 18.840340541 1 90.0 120.0 3.0 6.5 90.0 120.0 False 4.0 180.0 120.0 1.25 3.0 2026.82534467 3.89103913307
90 359.72278586 329.289246835 -1 90.0 120.0 3.0 6.5 90.0 120.0 True 4.0 180.0 120.0 2.5 3.0 -3060.27721414 3.80767989159
91 179.747027731 22.3004527732 -1 90.0 120.0 3.0 6.5 90.0 120.0 True 4.0 180.0 120.0 2.25 3.0 -2560.75297227 3.39036798477
92 277.935999807 193.80749574 1 90.0 120.0 3.0 6.5 90.0 120.0 True 4.0 180.0 120.0 2.0 3.0 2905.93599981 3.65841197968
93 239.082373978 157.769259657 1 90.0 120.0 3.0 6.5 90.0 120.0 False 4.0 180.0 120.0 2.75 3.0 2945.08237398 2.73564505577
94 247.837510106 357.739896214 -1 90.0 120.0 3.0 6.5 90.0 120.0 True 4.0 180.0 120.0 1.25 3.0 -1435.91248989 3.74991703033
95 327.871604784 181.251092173 -1 90.0 120.0 3.0 6.5 90.0 120.0 False 4.0 180.0 120.0 3.25 3.0 -3796.37839522 3.52592396736
96 222.100522892 317.196102038 1 90.0 120.0 3.0 6.5 90.0 120.0 False 4.0 180.0 120.0 3.5 3.0 3288.10052289 2.44081401825
97 93.2730351269 225.023362242 -1 90.0 120.0 3.0 6.5 90.0 120.0 False 4.0 180.0 120.0 2.75 3.0 -2249.72696487 2.37325286865
98 10.4131292632 283.655800334 -1 90.0 120.0 3.0 6.5 90.0 120.0 True 4.0 180.0 120.0 1.25 3.0 -1868.33687074 4.18374800682
99 41.8935977677 284.759572352 -1 90.0 120.0 3.0 6.5 90.0 120.0 False 4.0 180.0 120.0 3.5 3.0 -3066.10640223 2.46799588203
100 195.989205864 260.46797071 1 90.0 120.0 3.0 6.5 90.0 120.0 True 4.0 180.0 120.0 3.5 3.0 4154.48920586 3.14863991737
101 86.4297464651 308.156284687 -1 90.0 120.0 3.0 6.5 90.0 120.0 False 4.0 180.0 120.0 3.0 3.0 -3585.57025353 3.4079990387
102 63.7291657399 161.816971622 -1 90.0 120.0 3.0 6.5 90.0 120.0 True 4.0 180.0 120.0 3.0 3.0 -4391.27083426 4.13283395767
103 65.6071778638 309.527228626 1 90.0 120.0 3.0 6.5 90.0 120.0 False 4.0 180.0 120.0 1.0 3.0 1223.60717786 3.22499895096
104 92.4002567623 260.404863488 1 90.0 120.0 3.0 6.5 90.0 120.0 False 4.0 180.0 120.0 1.25 3.0 2072.40025676 4.40755987167
105 300.26942548 209.416846013 -1 90.0 120.0 3.0 6.5 90.0 120.0 False 4.0 180.0 120.0 1.0 3.0 -866.73057452 3.2499730587
106 335.354391991 196.300745508 1 90.0 120.0 3.0 6.5 90.0 120.0 True 4.0 180.0 120.0 3.25 3.0 3972.10439199 3.11490607262
107 92.7403233242 123.854230576 1 90.0 120.0 3.0 6.5 90.0 120.0 False 4.0 180.0 120.0 2.25 3.0 3076.24032332 3.68476700783
108 152.79887507 103.274106496 -1 90.0 120.0 3.0 6.5 90.0 120.0 True 4.0 180.0 120.0 1.5 3.0 -2344.70112493 4.62756514549
109 69.0415917898 99.4813193816 1 90.0 120.0 3.0 6.5 90.0 120.0 True 4.0 180.0 120.0 1.5 3.0 1914.04159179 3.42453598976
110 290.520771303 218.788793256 1 90.0 120.0 3.0 6.5 90.0 120.0 False 4.0 180.0 120.0 3.0 3.0 3782.5207713 3.24230194092
111 10.4095367909 346.01749884 -1 90.0 120.0 3.0 6.5 90.0 120.0 False 4.0 180.0 120.0 1.25 3.0 -1384.59046321 3.1079761982
112 169.733255794 77.5967304063 1 90.0 120.0 3.0 6.5 90.0 120.0 False 4.0 180.0 120.0 2.0 3.0 3277.73325579 4.32428812981
113 82.2901743465 289.816786368 -1 90.0 120.0 3.0 6.5 90.0 120.0 True 4.0 180.0 120.0 1.0 3.0 -1168.70982565 3.47553396225
114 127.891000134 220.491251057 1 90.0 120.0 3.0 6.5 90.0 120.0 True 4.0 180.0 120.0 2.5 3.0 3465.39100013 3.71617007256
115 196.522149163 44.529893652 -1 90.0 120.0 3.0 6.5 90.0 120.0 False 4.0 180.0 120.0 3.25 3.0 -4502.97785084 4.02337098122
116 98.9474403844 296.074867589 1 90.0 120.0 3.0 6.5 90.0 120.0 True 4.0 180.0 120.0 2.25 3.0 3959.94744038 4.77427005768
117 220.964946732 140.205763727 1 90.0 120.0 3.0 6.5 90.0 120.0 True 4.0 180.0 120.0 1.75 3.0 3376.21494673 5.01059508324
118 151.492850938 181.719509068 -1 90.0 120.0 3.0 6.5 90.0 120.0 False 4.0 180.0 120.0 2.5 3.0 -3486.00714906 4.04213094711
119 133.742912932 279.038552735 -1 90.0 120.0 3.0 6.5 90.0 120.0 False 4.0 180.0 120.0 2.0 3.0 -3952.25708707 5.68193101883
120 83.4442189761 30.125751971 -1 90.0 120.0 3.0 6.5 90.0 120.0 True 4.0 180.0 120.0 2.5 3.0 -3021.55578102 3.45753884315
121 322.805255889 129.687213621 -1 90.0 120.0 3.0 6.5 90.0 120.0 True 4.0 180.0 120.0 3.25 3.0 -2709.44474411 2.59436202049
122 18.5579943258 152.975820504 1 90.0 120.0 3.0 6.5 90.0 120.0 True 4.0 180.0 120.0 0.75 3.0 880.307994326 3.20042490959
123 126.030726025 353.213207326 1 90.0 120.0 3.0 6.5 90.0 120.0 True 4.0 180.0 120.0 2.0 3.0 3186.03072602 4.256939888
124 136.77285888 6.59750377687 -1 90.0 120.0 3.0 6.5 90.0 120.0 True 4.0 180.0 120.0 2.0 3.0 -3343.22714112 4.84197998047
125 48.2187419773 199.502999911 -1 90.0 120.0 3.0 6.5 90.0 120.0 True 4.0 180.0 120.0 3.5 3.0 -3416.78125802 2.75688695908
126 104.356234098 67.7500776205 1 90.0 120.0 3.0 6.5 90.0 120.0 True 4.0 180.0 120.0 2.75 3.0 2793.8562341 2.7245721817
127 86.6916139067 162.756025542 1 90.0 120.0 3.0 6.5 90.0 120.0 True 4.0 180.0 120.0 3.0 3.0 3866.69161391 3.50821185112
128 224.873100127 357.626936375 -1 90.0 120.0 3.0 6.5 90.0 120.0 True 4.0 180.0 120.0 1.75 3.0 -3114.12689987 5.30758500099
129 75.5605944417 9.58807863341 -1 90.0 120.0 3.0 6.5 90.0 120.0 False 4.0 180.0 120.0 1.5 3.0 -1814.43940556 3.50694012642
130 244.891109988 192.806715214 1 90.0 120.0 3.0 6.5 90.0 120.0 False 4.0 180.0 120.0 0.75 3.0 901.891109988 2.44136977196
131 316.634683719 319.815767854 -1 90.0 120.0 3.0 6.5 90.0 120.0 False 4.0 180.0 120.0 1.75 3.0 -2528.86531628 4.52506303787
132 332.916907024 188.695568508 1 90.0 120.0 3.0 6.5 90.0 120.0 False 4.0 180.0 120.0 1.5 3.0 2155.41690702 3.37524294853
133 244.375687045 154.613591383 1 90.0 120.0 3.0 6.5 90.0 120.0 False 4.0 180.0 120.0 2.5 3.0 3289.37568704 3.38443303108
134 184.768235321 296.297927889 1 90.0 120.0 3.0 6.5 90.0 120.0 False 4.0 180.0 120.0 3.25 3.0 3334.01823532 2.69800400734
135 74.2932432309 140.976287111 1 90.0 120.0 3.0 6.5 90.0 120.0 True 4.0 180.0 120.0 1.25 3.0 1953.04324323 4.17634487152
136 167.055036015 356.235718878 1 90.0 120.0 3.0 6.5 90.0 120.0 False 4.0 180.0 120.0 2.75 3.0 4283.80503601 4.1601369381
137 109.966069852 308.771383517 1 90.0 120.0 3.0 6.5 90.0 120.0 True 4.0 180.0 120.0 1.0 3.0 1189.96606985 3.00848317146
138 146.665312909 155.966545633 -1 90.0 120.0 3.0 6.5 90.0 120.0 True 4.0 180.0 120.0 2.75 3.0 -2773.83468709 2.95122408867
139 74.7435218201 37.2107542761 1 90.0 120.0 3.0 6.5 90.0 120.0 False 4.0 180.0 120.0 1.75 3.0 2830.99352182 4.38232398033
140 13.5627458178 291.456042234 -1 90.0 120.0 3.0 6.5 90.0 120.0 False 4.0 180.0 120.0 0.75 3.0 -771.687254182 2.91597700119
141 306.498345314 177.911045278 -1 90.0 120.0 3.0 6.5 90.0 120.0 False 4.0 180.0 120.0 2.25 3.0 -3635.50165469 4.87445402145
142 268.795086918 275.407958149 1 90.0 120.0 3.0 6.5 90.0 120.0 False 4.0 180.0 120.0 3.5 3.0 5560.79508692 4.20734381676
143 89.713709148 338.212955419 -1 90.0 120.0 3.0 6.5 90.0 120.0 True 4.0 180.0 120.0 2.25 3.0 -3737.53629085 4.72612500191
144 342.599924958 72.5402311986 -1 90.0 120.0 3.0 6.5 90.0 120.0 True 4.0 180.0 120.0 0.75 3.0 -440.400075042 2.90735602379
