trial direction durationRampingIni durationFinal sizeLandmark radiusLandmark durationRampingFinal durationIni same angleIni radius duration freq angleLandmark size response responseTime
1 -1 -401.25 5.68505716324
90.0 -401.25 5.68505716324
120.0 -401.25 5.68505716324
2.0 -401.25 5.68505716324
4.75 -401.25 5.68505716324
90.0 -401.25 5.68505716324
120.0 -401.25 5.68505716324
False -401.25 5.68505716324
300.0 -401.25 5.68505716324
3.0 -401.25 5.68505716324
240.0 -401.25 5.68505716324
1.25 -401.25 5.68505716324
225.0 -401.25 5.68505716324
2.0 -401.25 5.68505716324
2 -1 -1215.0 16.8657670021
90.0 -1215.0 16.8657670021
120.0 -1215.0 16.8657670021
2.0 -1215.0 16.8657670021
4.75 -1215.0 16.8657670021
90.0 -1215.0 16.8657670021
120.0 -1215.0 16.8657670021
False -1215.0 16.8657670021
240.0 -1215.0 16.8657670021
3.0 -1215.0 16.8657670021
240.0 -1215.0 16.8657670021
2.5 -1215.0 16.8657670021
180.0 -1215.0 16.8657670021
2.0 -1215.0 16.8657670021
