trial angleIni angleLandmark direction durationRampingIni durationFinal sizeLandmark radiusLandmark durationRampingFinal durationIni same radius duration durationRampingLand freq size response responseTime
1 296.781307017 344.721981913 1 90.0 120.0 3.0 6.5 90.0 120.0 True 4.0 180.0 120.0 1.25 3.0 1425.53130702 2.51769399643
2 155.001046783 184.617101878 -1 90.0 120.0 3.0 6.5 90.0 120.0 True 4.0 180.0 120.0 3.25 3.0 -5187.99895322 4.57446694374
3 29.2690692157 73.7927727729 -1 90.0 120.0 3.0 6.5 90.0 120.0 False 4.0 180.0 120.0 1.0 3.0 -981.730930784 2.80972480774
4 157.436363491 29.1754927146 -1 90.0 120.0 3.0 6.5 90.0 120.0 False 4.0 180.0 120.0 2.5 3.0 -2437.56363651 2.89088606834
5 144.69553468 48.8934423403 1 90.0 120.0 3.0 6.5 90.0 120.0 False 4.0 180.0 120.0 0.75 3.0 1105.44553468 3.56666493416
6 186.839400473 184.993979141 1 90.0 120.0 3.0 6.5 90.0 120.0 False 4.0 180.0 120.0 2.0 3.0 2706.83940047 3.50858688354
7 306.648142596 128.951450711 -1 90.0 120.0 3.0 6.5 90.0 120.0 True 4.0 180.0 120.0 2.75 3.0 -3183.1018574 3.53357410431
8 263.806715887 334.511178304 1 90.0 120.0 3.0 6.5 90.0 120.0 True 4.0 180.0 120.0 0.75 3.0 None None
9 336.887846558 210.204165695 -1 90.0 120.0 3.0 6.5 90.0 120.0 False 4.0 180.0 120.0 0.75 3.0 -473.112153442 3.00852298737
10 115.155571807 44.0020588653 1 90.0 120.0 3.0 6.5 90.0 120.0 False 4.0 180.0 120.0 2.5 3.0 4022.65557181 4.34941196442
11 33.7187744585 101.629748164 -1 90.0 120.0 3.0 6.5 90.0 120.0 False 4.0 180.0 120.0 1.5 3.0 -1352.28122554 2.56973290443
12 117.787129391 180.043658705 -1 90.0 120.0 3.0 6.5 90.0 120.0 True 4.0 180.0 120.0 1.5 3.0 -1623.71287061 3.23344397545
13 8.5951788222 158.223874016 1 90.0 120.0 3.0 6.5 90.0 120.0 True 4.0 180.0 120.0 2.75 3.0 4042.84517882 4.08311200142
14 244.667642509 352.680016794 -1 90.0 120.0 3.0 6.5 90.0 120.0 True 4.0 180.0 120.0 3.0 3.0 -3211.33235749 3.20036411285
15 165.45721122 6.83735039788 -1 90.0 120.0 3.0 6.5 90.0 120.0 True 4.0 180.0 120.0 1.25 3.0 -1818.29278878 4.41668391228
16 315.212841723 149.75005367 -1 90.0 120.0 3.0 6.5 90.0 120.0 False 4.0 180.0 120.0 1.75 3.0 -2435.78715828 4.3683412075
17 291.846869406 220.493476118 -1 90.0 120.0 3.0 6.5 90.0 120.0 True 4.0 180.0 120.0 1.0 3.0 -647.153130594 2.61646795273
18 127.129514454 122.630324925 1 90.0 120.0 3.0 6.5 90.0 120.0 False 4.0 180.0 120.0 1.5 3.0 2750.62951445 4.86686301231
19 156.448212857 133.780307451 1 90.0 120.0 3.0 6.5 90.0 120.0 False 4.0 180.0 120.0 1.75 3.0 2161.94821286 3.18390583992
20 353.755914924 184.274252227 1 90.0 120.0 3.0 6.5 90.0 120.0 True 4.0 180.0 120.0 2.25 3.0 4700.75591492 5.37516903877
21 167.819785791 250.213445046 -1 90.0 120.0 3.0 6.5 90.0 120.0 False 4.0 180.0 120.0 2.75 3.0 -4369.68021421 4.59107899666
22 292.648321552 30.5589416185 -1 90.0 120.0 3.0 6.5 90.0 120.0 False 4.0 180.0 120.0 1.25 3.0 -1856.10167845 4.78386688232
23 245.002316388 175.198522251 1 90.0 120.0 3.0 6.5 90.0 120.0 True 4.0 180.0 120.0 3.5 3.0 7091.00231639 5.44109392166
24 313.955495394 102.5222385 1 90.0 120.0 3.0 6.5 90.0 120.0 True 4.0 180.0 120.0 3.25 3.0 6943.95549539 5.6739962101
25 166.610548187 312.737150864 1 90.0 120.0 3.0 6.5 90.0 120.0 False 4.0 180.0 120.0 3.0 3.0 4531.61054819 4.05014395714
26 338.509075916 30.1908191709 -1 90.0 120.0 3.0 6.5 90.0 120.0 True 4.0 180.0 120.0 2.5 3.0 -2946.49092408 3.65762400627
27 115.127750864 13.6169569477 -1 90.0 120.0 3.0 6.5 90.0 120.0 False 4.0 180.0 120.0 3.5 3.0 -4095.37224914 3.34922409058
28 243.843097048 309.396964409 1 90.0 120.0 3.0 6.5 90.0 120.0 False 4.0 180.0 120.0 3.5 3.0 4664.34309705 3.50886797905
29 285.424575654 203.168463768 1 90.0 120.0 3.0 6.5 90.0 120.0 True 4.0 180.0 120.0 2.5 3.0 2820.42457565 2.82403302193
30 311.470986479 53.3019907491 1 90.0 120.0 3.0 6.5 90.0 120.0 True 4.0 180.0 120.0 2.0 3.0 2549.47098648 3.10907292366
31 131.86380797 189.067240491 1 90.0 120.0 3.0 6.5 90.0 120.0 True 4.0 180.0 120.0 3.0 3.0 4307.86380797 3.87417507172
32 154.301277705 226.384758726 1 90.0 120.0 3.0 6.5 90.0 120.0 False 4.0 180.0 120.0 1.0 3.0 1126.30127771 2.70070505142
33 256.276490567 254.084446808 -1 90.0 120.0 3.0 6.5 90.0 120.0 True 4.0 180.0 120.0 0.75 3.0 -454.723509433 2.64162683487
34 160.356723547 205.524137127 -1 90.0 120.0 3.0 6.5 90.0 120.0 False 4.0 180.0 120.0 3.25 3.0 -2988.89327645 2.69324088097
35 61.99492502 36.2220971899 1 90.0 120.0 3.0 6.5 90.0 120.0 True 4.0 180.0 120.0 1.75 3.0 2156.74492502 3.3334980011
36 13.245140501 189.266658952 1 90.0 120.0 3.0 6.5 90.0 120.0 True 4.0 180.0 120.0 1.5 3.0 1948.2451405 3.59104394913
37 248.359732554 207.731344975 -1 90.0 120.0 3.0 6.5 90.0 120.0 True 4.0 180.0 120.0 3.5 3.0 -4340.14026745 3.65016102791
38 153.878099805 314.773115888 1 90.0 120.0 3.0 6.5 90.0 120.0 False 4.0 180.0 120.0 2.75 3.0 3189.8780998 3.07445120811
39 108.380118635 86.8725677933 -1 90.0 120.0 3.0 6.5 90.0 120.0 True 4.0 180.0 120.0 2.0 3.0 -2081.61988137 3.04254007339
40 305.401430481 335.824072252 -1 90.0 120.0 3.0 6.5 90.0 120.0 False 4.0 180.0 120.0 3.0 3.0 -3834.59856952 3.84118390083
41 300.013270778 245.579743523 -1 90.0 120.0 3.0 6.5 90.0 120.0 False 4.0 180.0 120.0 2.0 3.0 -2381.98672922 3.73244285583
42 163.329851794 237.24313853 1 90.0 120.0 3.0 6.5 90.0 120.0 False 4.0 180.0 120.0 2.25 3.0 3106.32985179 3.63535094261
43 151.366548101 68.4572299809 1 90.0 120.0 3.0 6.5 90.0 120.0 True 4.0 180.0 120.0 1.0 3.0 1315.3665481 3.23531699181
44 172.152190331 239.296955001 1 90.0 120.0 3.0 6.5 90.0 120.0 False 4.0 180.0 120.0 3.25 3.0 4003.90219033 3.283411026
45 67.9773649962 284.606962427 -1 90.0 120.0 3.0 6.5 90.0 120.0 True 4.0 180.0 120.0 1.75 3.0 -2179.022635 3.5756649971
46 86.1248095355 258.948594821 -1 90.0 120.0 3.0 6.5 90.0 120.0 False 4.0 180.0 120.0 2.25 3.0 -2870.37519046 3.65068483353
47 287.805772001 185.696833938 1 90.0 120.0 3.0 6.5 90.0 120.0 False 4.0 180.0 120.0 1.25 3.0 1622.805772 2.97440505028
48 228.605164617 319.130017649 -1 90.0 120.0 3.0 6.5 90.0 120.0 True 4.0 180.0 120.0 2.25 3.0 -2910.14483538 3.88146901131
