trial angleIni angleLandmark direction durationRampingIni durationFinal sizeLandmark radiusLandmark durationRampingFinal durationIni same radius duration durationRampingLand freq size response responseTime
1 326.601561464 91.2001810174 -1 90.0 120.0 3.0 6.5 90.0 120.0 False 4.0 180.0 120.0 0.75 3.0 -438.398438536 2.83778595924
2 68.5277379009 248.022526745 -1 90.0 120.0 3.0 6.5 90.0 120.0 True 4.0 180.0 120.0 1.25 3.0 -2087.7222621 4.79366517067
3 314.921218049 2.4648887177 -1 90.0 120.0 3.0 6.5 90.0 120.0 True 4.0 180.0 120.0 2.75 3.0 -2547.82878195 2.90035414696
4 217.561171179 119.009658008 1 90.0 120.0 3.0 6.5 90.0 120.0 True 4.0 180.0 120.0 2.5 3.0 3150.06117118 3.26604700089
5 305.906842321 302.208444976 -1 90.0 120.0 3.0 6.5 90.0 120.0 False 4.0 180.0 120.0 2.5 3.0 -2551.59315768 3.18343186378
6 59.2828656797 112.435674608 1 90.0 120.0 3.0 6.5 90.0 120.0 True 4.0 180.0 120.0 2.25 3.0 2752.53286568 3.33305692673
7 356.555781567 179.504809385 1 90.0 120.0 3.0 6.5 90.0 120.0 True 4.0 180.0 120.0 1.75 3.0 3338.55578157 4.74152994156
8 81.9615843462 13.0851876414 -1 90.0 120.0 3.0 6.5 90.0 120.0 False 4.0 180.0 120.0 1.75 3.0 -2663.78841565 4.3660068512
9 71.7444559118 295.619891637 -1 90.0 120.0 3.0 6.5 90.0 120.0 True 4.0 180.0 120.0 2.5 3.0 -2658.25554409 3.04123806953
10 270.981022292 30.8769678744 -1 90.0 120.0 3.0 6.5 90.0 120.0 False 4.0 180.0 120.0 2.25 3.0 -2186.01897771 3.04151296616
11 215.463403475 188.644185786 -1 90.0 120.0 3.0 6.5 90.0 120.0 False 4.0 180.0 120.0 1.25 3.0 -1134.53659653 3.00204515457
12 182.394164666 208.149438313 -1 90.0 120.0 3.0 6.5 90.0 120.0 False 4.0 180.0 120.0 2.0 3.0 -3267.60583533 4.79344320297
13 87.679346587 74.1692371627 1 90.0 120.0 3.0 6.5 90.0 120.0 True 4.0 180.0 120.0 1.0 3.0 1500.67934659 3.93263483047
14 160.518738327 135.779491965 -1 90.0 120.0 3.0 6.5 90.0 120.0 True 4.0 180.0 120.0 1.75 3.0 -2501.23126167 4.23245620728
15 267.175643766 356.688004788 1 90.0 120.0 3.0 6.5 90.0 120.0 False 4.0 180.0 120.0 2.25 3.0 3642.17564377 4.16754889488
16 111.971231283 182.502714223 1 90.0 120.0 3.0 6.5 90.0 120.0 True 4.0 180.0 120.0 1.5 3.0 2798.47123128 4.97756385803
17 37.8218185425 271.885903652 1 90.0 120.0 3.0 6.5 90.0 120.0 False 4.0 180.0 120.0 2.5 3.0 3907.82181854 4.30751895905
18 217.970731525 212.648226708 -1 90.0 120.0 3.0 6.5 90.0 120.0 False 4.0 180.0 120.0 1.5 3.0 -2356.02926848 4.77556800842
19 68.6801089936 187.626365199 1 90.0 120.0 3.0 6.5 90.0 120.0 False 4.0 180.0 120.0 1.25 3.0 2397.43010899 5.18257713318
20 240.875498833 309.775347556 -1 90.0 120.0 3.0 6.5 90.0 120.0 False 4.0 180.0 120.0 2.75 3.0 -3917.12450117 4.20695185661
21 355.666369437 5.73728121243 1 90.0 120.0 3.0 6.5 90.0 120.0 False 4.0 180.0 120.0 2.75 3.0 4043.41636944 3.73274087906
22 5.73630136803 69.1470038195 -1 90.0 120.0 3.0 6.5 90.0 120.0 True 4.0 180.0 120.0 1.0 3.0 -1401.26369863 3.91627383232
23 259.439677586 338.334991131 -1 90.0 120.0 3.0 6.5 90.0 120.0 True 4.0 180.0 120.0 2.0 3.0 -3622.56032241 5.39885592461
24 235.946993587 202.654965846 1 90.0 120.0 3.0 6.5 90.0 120.0 True 4.0 180.0 120.0 2.0 3.0 3103.94699359 3.99095892906
25 78.8349240942 90.4220635223 -1 90.0 120.0 3.0 6.5 90.0 120.0 True 4.0 180.0 120.0 0.75 3.0 -591.665075906 2.49026989937
26 33.2598332656 271.422547438 1 90.0 120.0 3.0 6.5 90.0 120.0 False 4.0 180.0 120.0 1.75 3.0 2033.50983327 3.18183088303
27 229.790210894 336.630127424 1 90.0 120.0 3.0 6.5 90.0 120.0 False 4.0 180.0 120.0 2.0 3.0 2761.79021089 3.52458381653
28 351.869769083 62.2030308316 -1 90.0 120.0 3.0 6.5 90.0 120.0 True 4.0 180.0 120.0 2.25 3.0 -2415.63023092 3.42326498032
29 150.83131562 119.022443707 1 90.0 120.0 3.0 6.5 90.0 120.0 True 4.0 180.0 120.0 2.75 3.0 3294.08131562 3.18265914917
30 231.384954034 167.405478361 -1 90.0 120.0 3.0 6.5 90.0 120.0 False 4.0 180.0 120.0 1.0 3.0 -767.615045966 2.78318500519
31 247.094257396 253.830062221 1 90.0 120.0 3.0 6.5 90.0 120.0 True 4.0 180.0 120.0 1.25 3.0 2110.8442574 4.14958310127
32 137.511079321 84.7624345937 -1 90.0 120.0 3.0 6.5 90.0 120.0 True 4.0 180.0 120.0 1.5 3.0 -3003.48892068 5.82534503937
33 270.934357958 225.312314346 1 90.0 120.0 3.0 6.5 90.0 120.0 True 4.0 180.0 120.0 0.75 3.0 1463.43435796 4.42463588715
34 96.6510278049 7.89228490974 1 90.0 120.0 3.0 6.5 90.0 120.0 False 4.0 180.0 120.0 1.5 3.0 2760.6510278 4.93515896797
35 114.521723874 305.494901921 1 90.0 120.0 3.0 6.5 90.0 120.0 False 4.0 180.0 120.0 0.75 3.0 832.271723874 2.66005587578
36 173.778272124 95.1184832464 1 90.0 120.0 3.0 6.5 90.0 120.0 False 4.0 180.0 120.0 1.0 3.0 1346.77827212 3.26572084427
37 227.082087472 310.566324743 1 90.0 120.0 3.0 6.5 90.0 120.0 False 4.0 180.0 120.0 1.75 3.0 3350.83208747 4.96546697617
38 358.808684859 292.035378503 -1 90.0 120.0 3.0 6.5 90.0 120.0 False 4.0 180.0 120.0 1.25 3.0 -1039.94131514 3.10910201073
39 50.2447181384 139.986478205 1 90.0 120.0 3.0 6.5 90.0 120.0 True 4.0 180.0 120.0 1.0 3.0 1205.24471814 3.21530199051
40 185.401783204 278.768300564 1 90.0 120.0 3.0 6.5 90.0 120.0 True 4.0 180.0 120.0 1.75 3.0 2589.9017832 3.82423901558
41 304.298941021 134.648840346 1 90.0 120.0 3.0 6.5 90.0 120.0 True 4.0 180.0 120.0 2.5 3.0 2704.29894102 2.6683909893
42 69.6162270252 248.643641541 1 90.0 120.0 3.0 6.5 90.0 120.0 True 4.0 180.0 120.0 2.75 3.0 2808.61622703 2.77324104309
43 204.313945519 282.684289293 1 90.0 120.0 3.0 6.5 90.0 120.0 True 4.0 180.0 120.0 0.75 3.0 953.563945519 2.78348112106
44 305.966139238 111.599064355 -1 90.0 120.0 3.0 6.5 90.0 120.0 True 4.0 180.0 120.0 1.5 3.0 -1764.03386076 3.84080195427
45 141.653590896 64.0256194111 -1 90.0 120.0 3.0 6.5 90.0 120.0 False 4.0 180.0 120.0 2.75 3.0 -2803.5964091 2.98218417168
46 278.164205738 302.525459996 -1 90.0 120.0 3.0 6.5 90.0 120.0 False 4.0 180.0 120.0 2.25 3.0 -3177.83579426 4.2683057785
47 218.678258832 231.188349528 1 90.0 120.0 3.0 6.5 90.0 120.0 False 4.0 180.0 120.0 1.0 3.0 1661.67825883 4.01631903648
48 104.751728751 350.805969103 -1 90.0 120.0 3.0 6.5 90.0 120.0 True 4.0 180.0 120.0 2.25 3.0 -2777.49827125 3.56683897972
49 226.906776294 5.3963193915 1 90.0 120.0 3.0 6.5 90.0 120.0 True 4.0 180.0 120.0 2.0 3.0 3760.90677629 4.91628408432
50 305.075746468 210.659894551 -1 90.0 120.0 3.0 6.5 90.0 120.0 False 4.0 180.0 120.0 2.0 3.0 -2868.92425353 4.41676688194
51 2.44344259739 249.949702182 -1 90.0 120.0 3.0 6.5 90.0 120.0 True 4.0 180.0 120.0 0.75 3.0 -656.806557403 2.44375610352
52 147.70119449 8.1594149252 -1 90.0 120.0 3.0 6.5 90.0 120.0 True 4.0 180.0 120.0 2.75 3.0 -4051.54880551 4.24389004707
53 124.197736377 354.606939961 1 90.0 120.0 3.0 6.5 90.0 120.0 False 4.0 180.0 120.0 1.25 3.0 2704.19773638 5.74135398865
54 189.304422689 181.120216961 1 90.0 120.0 3.0 6.5 90.0 120.0 False 4.0 180.0 120.0 2.0 3.0 3279.30442269 4.29949522018
55 182.16196718 14.3529851959 -1 90.0 120.0 3.0 6.5 90.0 120.0 True 4.0 180.0 120.0 1.25 3.0 -1715.33803282 4.22489213943
56 174.71176348 116.429271319 1 90.0 120.0 3.0 6.5 90.0 120.0 False 4.0 180.0 120.0 2.75 3.0 3293.21176348 3.15872693062
57 279.731366215 247.761288864 -1 90.0 120.0 3.0 6.5 90.0 120.0 False 4.0 180.0 120.0 1.5 3.0 -2213.26863379 4.61909484863
58 340.851967972 27.0263102771 -1 90.0 120.0 3.0 6.5 90.0 120.0 True 4.0 180.0 120.0 1.75 3.0 -2000.64803203 3.7250649929
59 99.3107860041 148.816465872 -1 90.0 120.0 3.0 6.5 90.0 120.0 False 4.0 180.0 120.0 2.5 3.0 -3298.189214 3.78282809258
60 167.138927706 59.1697265401 1 90.0 120.0 3.0 6.5 90.0 120.0 False 4.0 180.0 120.0 2.5 3.0 3722.13892771 3.95692801476
61 63.6210701654 284.193478997 -1 90.0 120.0 3.0 6.5 90.0 120.0 False 4.0 180.0 120.0 1.75 3.0 None None
62 265.0213493 284.388433599 1 90.0 120.0 3.0 6.5 90.0 120.0 False 4.0 180.0 120.0 0.75 3.0 987.2713493 2.68267583847
63 346.975891863 41.8147795161 1 90.0 120.0 3.0 6.5 90.0 120.0 True 4.0 180.0 120.0 2.25 3.0 2992.97589186 3.27537178993
64 326.801796334 143.139557515 -1 90.0 120.0 3.0 6.5 90.0 120.0 True 4.0 180.0 120.0 2.0 3.0 -2253.19820367 3.58544993401
65 166.157758634 166.358261619 -1 90.0 120.0 3.0 6.5 90.0 120.0 True 4.0 180.0 120.0 1.0 3.0 -769.842241366 2.60068416595
66 230.31653492 91.2771605752 -1 90.0 120.0 3.0 6.5 90.0 120.0 False 4.0 180.0 120.0 0.75 3.0 -433.43346508 2.4663541317
67 116.795140991 35.6109298156 1 90.0 120.0 3.0 6.5 90.0 120.0 True 4.0 180.0 120.0 1.25 3.0 1886.79514099 3.94181013107
68 307.568534189 187.11737418 1 90.0 120.0 3.0 6.5 90.0 120.0 False 4.0 180.0 120.0 1.5 3.0 2760.06853419 4.54937505722
69 45.8913730328 283.501799884 1 90.0 120.0 3.0 6.5 90.0 120.0 True 4.0 180.0 120.0 1.5 3.0 2921.39137303 5.33259701729
70 357.771827055 214.125503062 -1 90.0 120.0 3.0 6.5 90.0 120.0 True 4.0 180.0 120.0 2.5 3.0 -3324.72817295 4.1005191803
71 168.547514082 262.18077674 -1 90.0 120.0 3.0 6.5 90.0 120.0 False 4.0 180.0 120.0 1.0 3.0 -806.452485918 2.71506381035
72 25.70904047 126.6434794 1 90.0 120.0 3.0 6.5 90.0 120.0 False 4.0 180.0 120.0 2.25 3.0 2367.95904047 2.90030193329
73 185.318452574 58.74525066 -1 90.0 120.0 3.0 6.5 90.0 120.0 True 4.0 180.0 120.0 2.25 3.0 -2318.93154743 3.09963798523
74 36.1027143759 230.921175225 -1 90.0 120.0 3.0 6.5 90.0 120.0 False 4.0 180.0 120.0 0.75 3.0 -654.647285624 2.55995702744
75 294.600247893 15.9628052872 -1 90.0 120.0 3.0 6.5 90.0 120.0 True 4.0 180.0 120.0 2.5 3.0 -3057.89975211 3.7319290638
76 41.3503388827 63.8102331328 1 90.0 120.0 3.0 6.5 90.0 120.0 True 4.0 180.0 120.0 2.5 3.0 3483.85033888 3.83319401741
77 178.421565537 248.150524524 1 90.0 120.0 3.0 6.5 90.0 120.0 False 4.0 180.0 120.0 1.25 3.0 2589.67156554 5.35958981514
78 53.2976033227 150.753596601 -1 90.0 120.0 3.0 6.5 90.0 120.0 True 4.0 180.0 120.0 1.5 3.0 -2048.20239668 3.9003329277
79 351.472895596 169.169858084 1 90.0 120.0 3.0 6.5 90.0 120.0 False 4.0 180.0 120.0 2.0 3.0 3159.4728956 3.90759801865
80 258.748957748 43.1041763332 1 90.0 120.0 3.0 6.5 90.0 120.0 True 4.0 180.0 120.0 2.75 3.0 4218.74895775 4.00684690475
81 250.232236577 283.757671347 1 90.0 120.0 3.0 6.5 90.0 120.0 True 4.0 180.0 120.0 1.0 3.0 1363.23223658 3.09911704063
82 195.637211602 332.456096908 -1 90.0 120.0 3.0 6.5 90.0 120.0 True 4.0 180.0 120.0 0.75 3.0 -715.612788398 3.38233304024
83 56.0317588256 196.798120912 -1 90.0 120.0 3.0 6.5 90.0 120.0 True 4.0 180.0 120.0 2.0 3.0 -2859.96824117 4.05743598938
84 148.616658789 219.902203784 1 90.0 120.0 3.0 6.5 90.0 120.0 True 4.0 180.0 120.0 0.75 3.0 909.116658789 2.82526898384
85 319.679303715 340.593881401 -1 90.0 120.0 3.0 6.5 90.0 120.0 True 4.0 180.0 120.0 1.25 3.0 -1626.57069628 4.32597494125
86 43.98437318 48.6980800696 -1 90.0 120.0 3.0 6.5 90.0 120.0 False 4.0 180.0 120.0 2.0 3.0 -2230.01562682 3.16507697105
87 315.071566149 174.305443213 -1 90.0 120.0 3.0 6.5 90.0 120.0 False 4.0 180.0 120.0 1.5 3.0 -1363.42843385 3.10861802101
88 197.746026215 296.213728874 1 90.0 120.0 3.0 6.5 90.0 120.0 True 4.0 180.0 120.0 2.0 3.0 2267.74602621 2.87607884407
89 7.19210618124 277.970781299 -1 90.0 120.0 3.0 6.5 90.0 120.0 False 4.0 180.0 120.0 2.25 3.0 -2395.80789382 2.97523617744
90 327.128772081 112.788141341 1 90.0 120.0 3.0 6.5 90.0 120.0 False 4.0 180.0 120.0 1.75 3.0 3209.37877208 4.58240509033
91 45.2672845848 310.210749993 -1 90.0 120.0 3.0 6.5 90.0 120.0 True 4.0 180.0 120.0 1.75 3.0 -2705.73271542 4.37483000755
92 129.90571632 243.337619244 -1 90.0 120.0 3.0 6.5 90.0 120.0 True 4.0 180.0 120.0 1.0 3.0 -1004.09428368 3.15769219398
93 134.937153118 346.94815122 -1 90.0 120.0 3.0 6.5 90.0 120.0 False 4.0 180.0 120.0 1.75 3.0 -2159.31284688 3.64925599098
94 169.510583345 178.622592072 1 90.0 120.0 3.0 6.5 90.0 120.0 False 4.0 180.0 120.0 2.75 3.0 3362.26058335 3.23285603523
95 86.6382502556 122.579123246 1 90.0 120.0 3.0 6.5 90.0 120.0 True 4.0 180.0 120.0 1.25 3.0 1759.13825026 3.72343111038
96 119.965323911 245.972539624 -1 90.0 120.0 3.0 6.5 90.0 120.0 False 4.0 180.0 120.0 1.25 3.0 -2025.03467609 4.77436995506
97 208.027895039 216.010035225 1 90.0 120.0 3.0 6.5 90.0 120.0 False 4.0 180.0 120.0 2.25 3.0 4136.52789504 4.85815000534
98 113.820076108 96.4335918148 -1 90.0 120.0 3.0 6.5 90.0 120.0 True 4.0 180.0 120.0 2.75 3.0 -2963.42992389 3.11493515968
99 152.51095639 237.279585118 1 90.0 120.0 3.0 6.5 90.0 120.0 False 4.0 180.0 120.0 1.5 3.0 2353.01095639 4.07541918755
100 295.037200493 45.6205876372 -1 90.0 120.0 3.0 6.5 90.0 120.0 False 4.0 180.0 120.0 2.5 3.0 -2397.46279951 2.99982404709
101 247.825530715 355.519784024 1 90.0 120.0 3.0 6.5 90.0 120.0 False 4.0 180.0 120.0 1.0 3.0 1630.82553071 3.84316492081
102 82.9660483973 18.1177606468 1 90.0 120.0 3.0 6.5 90.0 120.0 True 4.0 180.0 120.0 1.75 3.0 2298.4660484 3.52550196648
103 87.6200056441 153.540099329 1 90.0 120.0 3.0 6.5 90.0 120.0 False 4.0 180.0 120.0 0.75 3.0 868.370005644 2.8999941349
104 87.6171000105 275.982679112 -1 90.0 120.0 3.0 6.5 90.0 120.0 False 4.0 180.0 120.0 1.0 3.0 -1349.38289999 3.99931406975
105 92.5811945434 213.300039855 1 90.0 120.0 3.0 6.5 90.0 120.0 False 4.0 180.0 120.0 2.5 3.0 2725.08119454 2.93195796013
106 8.37491391477 255.552185396 1 90.0 120.0 3.0 6.5 90.0 120.0 True 4.0 180.0 120.0 2.25 3.0 3876.12491391 4.78256678581
107 12.9287573873 49.5126170885 -1 90.0 120.0 3.0 6.5 90.0 120.0 False 4.0 180.0 120.0 2.75 3.0 -3600.57124261 3.65157985687
108 301.396699465 358.581554249 1 90.0 120.0 3.0 6.5 90.0 120.0 True 4.0 180.0 120.0 1.5 3.0 2443.39669947 3.97499203682
