trial angleIni angleLandmark direction durationRampingIni durationFinal sizeLandmark radiusLandmark durationRampingFinal durationIni same radius duration durationRampingLand freq size response responseTime
1 195.895803326 197.144112748 1 90.0 120.0 3.0 6.5 90.0 120.0 True 4.0 180.0 120.0 1.25 3.0 1309.64580333 2.48047399521
2 282.474981787 172.764930707 1 90.0 120.0 3.0 6.5 90.0 120.0 False 4.0 180.0 120.0 2.75 3.0 2980.22498179 2.73286509514
3 225.561154072 225.372788146 -1 90.0 120.0 3.0 6.5 90.0 120.0 True 4.0 180.0 120.0 2.25 3.0 -2818.68884593 3.76693201065
4 257.011409705 141.654535793 1 90.0 120.0 3.0 6.5 90.0 120.0 False 4.0 180.0 120.0 1.25 3.0 1764.51140971 3.35850405693
5 159.137505596 305.637478742 -1 90.0 120.0 3.0 6.5 90.0 120.0 False 4.0 180.0 120.0 2.5 3.0 -2608.3624944 3.08295106888
6 323.818525394 90.0432347543 1 90.0 120.0 3.0 6.5 90.0 120.0 True 4.0 180.0 120.0 2.5 3.0 3226.31852539 3.23260211945
7 47.3854461351 66.0417608166 1 90.0 120.0 3.0 6.5 90.0 120.0 True 4.0 180.0 120.0 1.75 3.0 2677.63544614 4.18342208862
8 239.105492335 246.700841579 -1 90.0 120.0 3.0 6.5 90.0 120.0 True 4.0 180.0 120.0 2.0 3.0 -3372.89450766 5.02460312843
9 9.59134060043 46.0813470643 -1 90.0 120.0 3.0 6.5 90.0 120.0 False 4.0 180.0 120.0 2.25 3.0 -2413.6586594 2.99897098541
10 314.875434508 224.659289145 -1 90.0 120.0 3.0 6.5 90.0 120.0 False 4.0 180.0 120.0 2.75 3.0 -3669.87456549 4.02614402771
11 303.499835639 249.632956522 1 90.0 120.0 3.0 6.5 90.0 120.0 False 4.0 180.0 120.0 1.0 3.0 1662.49983564 3.78380084038
12 201.819254446 145.202875796 -1 90.0 120.0 3.0 6.5 90.0 120.0 False 4.0 180.0 120.0 1.5 3.0 -1724.18074555 3.57438397408
13 26.1013608017 70.5367103891 1 90.0 120.0 3.0 6.5 90.0 120.0 False 4.0 180.0 120.0 3.5 3.0 4257.6013608 3.36544108391
14 341.68693869 4.35724874024 1 90.0 120.0 3.0 6.5 90.0 120.0 False 4.0 180.0 120.0 0.75 3.0 1255.18693869 3.39154696465
15 345.131001786 124.421220164 -1 90.0 120.0 3.0 6.5 90.0 120.0 False 4.0 180.0 120.0 0.75 3.0 -581.868998214 3.44061088562
16 25.6305819232 179.175304141 1 90.0 120.0 3.0 6.5 90.0 120.0 False 4.0 180.0 120.0 2.25 3.0 3191.38058192 3.91604995728
17 132.582383283 133.316365298 -1 90.0 120.0 3.0 6.5 90.0 120.0 False 4.0 180.0 120.0 3.25 3.0 -2977.66761672 2.66598010063
18 74.7198138227 138.362437175 -1 90.0 120.0 3.0 6.5 90.0 120.0 True 4.0 180.0 120.0 1.75 3.0 -2634.28018618 4.30809783936
19 6.0576829676 79.43935498 1 90.0 120.0 3.0 6.5 90.0 120.0 False 4.0 180.0 120.0 3.25 3.0 2911.55768297 2.49054098129
20 181.546647977 139.297651862 -1 90.0 120.0 3.0 6.5 90.0 120.0 True 4.0 180.0 120.0 1.0 3.0 -1477.45335202 4.60923600197
21 115.362162909 32.4620430718 1 90.0 120.0 3.0 6.5 90.0 120.0 True 4.0 180.0 120.0 3.5 3.0 5281.36216291 4.10823082924
22 71.0951950053 220.127691461 1 90.0 120.0 3.0 6.5 90.0 120.0 True 4.0 180.0 120.0 2.75 3.0 3602.09519501 3.56768202782
23 291.910447466 42.5710298669 1 90.0 120.0 3.0 6.5 90.0 120.0 False 4.0 180.0 120.0 2.0 3.0 4107.91044747 5.30802297592
24 193.629386803 282.82192854 -1 90.0 120.0 3.0 6.5 90.0 120.0 False 4.0 180.0 120.0 1.25 3.0 -2037.6206132 4.96025204659
25 141.530299996 9.03447336801 1 90.0 120.0 3.0 6.5 90.0 120.0 True 4.0 180.0 120.0 2.25 3.0 3719.0303 4.425137043
26 252.071689973 178.524528049 -1 90.0 120.0 3.0 6.5 90.0 120.0 False 4.0 180.0 120.0 1.0 3.0 -1256.92831003 4.20014691353
27 165.084600052 156.656955375 1 90.0 120.0 3.0 6.5 90.0 120.0 True 4.0 180.0 120.0 3.0 3.0 3171.08460005 2.79062509537
28 270.339518689 66.2770957697 1 90.0 120.0 3.0 6.5 90.0 120.0 False 4.0 180.0 120.0 1.75 3.0 2512.08951869 3.55981183052
29 11.9393799163 66.9793090712 1 90.0 120.0 3.0 6.5 90.0 120.0 True 4.0 180.0 120.0 1.5 3.0 2441.93937992 4.50741791725
30 212.56607191 229.31716503 -1 90.0 120.0 3.0 6.5 90.0 120.0 False 4.0 180.0 120.0 3.5 3.0 -3745.93392809 3.14273285866
31 357.860071758 5.2993543623 1 90.0 120.0 3.0 6.5 90.0 120.0 True 4.0 180.0 120.0 3.25 3.0 4335.86007176 3.40826392174
32 41.8542096061 94.5078820459 1 90.0 120.0 3.0 6.5 90.0 120.0 False 4.0 180.0 120.0 1.5 3.0 2629.35420961 4.79998707771
33 347.015719611 287.995446706 -1 90.0 120.0 3.0 6.5 90.0 120.0 True 4.0 180.0 120.0 3.5 3.0 -2897.48428039 2.57581806183
34 315.16584409 39.8665027727 -1 90.0 120.0 3.0 6.5 90.0 120.0 True 4.0 180.0 120.0 1.25 3.0 -1222.33415591 3.42476391792
35 46.1257426816 176.452135984 -1 90.0 120.0 3.0 6.5 90.0 120.0 False 4.0 180.0 120.0 2.0 3.0 -2545.87425732 3.60689306259
36 233.411152295 29.6696742344 1 90.0 120.0 3.0 6.5 90.0 120.0 False 4.0 180.0 120.0 3.0 3.0 4382.4111523 3.84907102585
37 198.432853124 192.701774789 -1 90.0 120.0 3.0 6.5 90.0 120.0 False 4.0 180.0 120.0 3.0 3.0 -3779.56714688 3.69215106964
38 161.018444038 88.6967246872 1 90.0 120.0 3.0 6.5 90.0 120.0 False 4.0 180.0 120.0 2.5 3.0 4548.51844404 4.88196206093
39 140.443766216 149.338745517 -1 90.0 120.0 3.0 6.5 90.0 120.0 True 4.0 180.0 120.0 3.0 3.0 -3207.55623378 3.10238313675
40 89.3654086649 193.042535812 1 90.0 120.0 3.0 6.5 90.0 120.0 True 4.0 180.0 120.0 1.0 3.0 1634.36540866 4.29874491692
41 256.16952352 313.141610505 -1 90.0 120.0 3.0 6.5 90.0 120.0 True 4.0 180.0 120.0 1.5 3.0 -2439.33047648 4.99937987328
42 198.496204901 68.1756298118 1 90.0 120.0 3.0 6.5 90.0 120.0 True 4.0 180.0 120.0 0.75 3.0 1145.7462049 3.50998497009
43 356.695228255 2.22320424026 -1 90.0 120.0 3.0 6.5 90.0 120.0 False 4.0 180.0 120.0 1.75 3.0 -2310.30477174 4.24097204208
44 37.2944189767 219.823232096 -1 90.0 120.0 3.0 6.5 90.0 120.0 True 4.0 180.0 120.0 2.5 3.0 -4087.70558102 4.59092998505
45 156.966326139 149.499351747 -1 90.0 120.0 3.0 6.5 90.0 120.0 True 4.0 180.0 120.0 0.75 3.0 -916.283673861 3.98395705223
46 38.5946812296 218.513670145 1 90.0 120.0 3.0 6.5 90.0 120.0 True 4.0 180.0 120.0 2.0 3.0 2912.59468123 3.99854493141
47 110.584692748 62.6239530147 -1 90.0 120.0 3.0 6.5 90.0 120.0 True 4.0 180.0 120.0 2.75 3.0 -3931.91530725 4.08533096313
48 259.172366202 122.791915552 -1 90.0 120.0 3.0 6.5 90.0 120.0 True 4.0 180.0 120.0 3.25 3.0 -4908.3276338 4.42550110817
49 62.4085507361 293.137609903 1 90.0 120.0 3.0 6.5 90.0 120.0 False 4.0 180.0 120.0 2.75 3.0 4360.65855074 4.36611604691
50 17.4754897143 200.553370149 1 90.0 120.0 3.0 6.5 90.0 120.0 True 4.0 180.0 120.0 0.75 3.0 1101.97548971 4.02436685562
51 332.678047334 95.591467401 -1 90.0 120.0 3.0 6.5 90.0 120.0 True 4.0 180.0 120.0 2.75 3.0 -3049.82195267 3.42426013947
52 354.361144411 198.024625239 1 90.0 120.0 3.0 6.5 90.0 120.0 True 4.0 180.0 120.0 3.5 3.0 6244.86114441 4.67741012573
53 298.018249038 68.069933408 1 90.0 120.0 3.0 6.5 90.0 120.0 True 4.0 180.0 120.0 3.25 3.0 5163.26824904 4.16711902618
54 281.542949942 146.773425609 1 90.0 120.0 3.0 6.5 90.0 120.0 True 4.0 180.0 120.0 1.25 3.0 2647.79294994 5.259786129
55 130.917126097 115.095239161 -1 90.0 120.0 3.0 6.5 90.0 120.0 False 4.0 180.0 120.0 3.25 3.0 -4929.3328739 4.33372211456
56 150.49995989 256.002310168 -1 90.0 120.0 3.0 6.5 90.0 120.0 False 4.0 180.0 120.0 1.25 3.0 -1552.00004011 3.79169297218
57 116.255624714 67.8867429874 1 90.0 120.0 3.0 6.5 90.0 120.0 False 4.0 180.0 120.0 3.5 3.0 4662.75562471 3.61573290825
58 137.266297088 62.9243682285 -1 90.0 120.0 3.0 6.5 90.0 120.0 True 4.0 180.0 120.0 2.5 3.0 -4977.73370291 5.69065403938
59 158.363176434 358.241605132 -1 90.0 120.0 3.0 6.5 90.0 120.0 True 4.0 180.0 120.0 1.25 3.0 -1765.38682357 4.28369283676
60 2.42575400022 79.8121709576 -1 90.0 120.0 3.0 6.5 90.0 120.0 False 4.0 180.0 120.0 2.25 3.0 -2920.324246 3.6106698513
61 325.333752316 270.986640184 1 90.0 120.0 3.0 6.5 90.0 120.0 False 4.0 180.0 120.0 1.25 3.0 2560.33375232 4.97423100471
62 58.0337313282 57.6822862564 -1 90.0 120.0 3.0 6.5 90.0 120.0 False 4.0 180.0 120.0 1.5 3.0 -1543.96626867 2.97394299507
63 231.328666703 135.047524443 1 90.0 120.0 3.0 6.5 90.0 120.0 True 4.0 180.0 120.0 1.5 3.0 2269.8286667 3.78178715706
64 162.344926003 58.8544976547 1 90.0 120.0 3.0 6.5 90.0 120.0 True 4.0 180.0 120.0 2.0 3.0 2802.344926 3.6751601696
65 51.0126769518 315.350895724 1 90.0 120.0 3.0 6.5 90.0 120.0 False 4.0 180.0 120.0 3.0 3.0 5874.01267695 5.39400005341
66 165.085732846 137.241459959 1 90.0 120.0 3.0 6.5 90.0 120.0 False 4.0 180.0 120.0 2.0 3.0 3033.08573285 3.99152302742
67 102.679672139 341.637448752 -1 90.0 120.0 3.0 6.5 90.0 120.0 True 4.0 180.0 120.0 3.0 3.0 -5243.32032786 4.95801210403
68 143.576580512 156.178213791 -1 90.0 120.0 3.0 6.5 90.0 120.0 False 4.0 180.0 120.0 3.5 3.0 -4696.92341949 3.84831500053
69 2.71589671558 202.9704706 -1 90.0 120.0 3.0 6.5 90.0 120.0 False 4.0 180.0 120.0 1.0 3.0 -1947.28410328 5.41838502884
70 46.0871812065 113.593598434 1 90.0 120.0 3.0 6.5 90.0 120.0 True 4.0 180.0 120.0 1.0 3.0 1546.08718121 4.17445802689
71 28.774310075 273.577601402 1 90.0 120.0 3.0 6.5 90.0 120.0 True 4.0 180.0 120.0 2.5 3.0 3351.27431008 3.69825387001
72 344.999795895 203.575392883 -1 90.0 120.0 3.0 6.5 90.0 120.0 True 4.0 180.0 120.0 3.25 3.0 -4549.5002041 4.18546104431
73 119.200917198 255.043380476 -1 90.0 120.0 3.0 6.5 90.0 120.0 True 4.0 180.0 120.0 3.5 3.0 -5928.7990828 4.80806112289
74 333.928048304 300.419145837 1 90.0 120.0 3.0 6.5 90.0 120.0 False 4.0 180.0 120.0 2.25 3.0 4167.9280483 4.74087905884
75 144.459807164 76.6077423004 -1 90.0 120.0 3.0 6.5 90.0 120.0 False 4.0 180.0 120.0 0.75 3.0 None None
76 117.27704848 146.186227562 1 90.0 120.0 3.0 6.5 90.0 120.0 True 4.0 180.0 120.0 3.0 3.0 3060.27704848 2.73210906982
77 40.5162566235 351.538486329 -1 90.0 120.0 3.0 6.5 90.0 120.0 True 4.0 180.0 120.0 2.0 3.0 -2179.48374338 3.09074687958
78 205.81431433 11.9416459224 1 90.0 120.0 3.0 6.5 90.0 120.0 True 4.0 180.0 120.0 2.25 3.0 3162.31431433 3.65836596489
79 6.23786537829 59.2099360598 -1 90.0 120.0 3.0 6.5 90.0 120.0 True 4.0 180.0 120.0 2.25 3.0 -3058.26213462 3.79089093208
80 70.6949546806 183.444734113 1 90.0 120.0 3.0 6.5 90.0 120.0 False 4.0 180.0 120.0 1.75 3.0 1981.69495468 3.0421128273
81 208.704673853 263.279512241 -1 90.0 120.0 3.0 6.5 90.0 120.0 False 4.0 180.0 120.0 3.0 3.0 -3940.29532615 3.8497710228
82 263.500730883 303.113858708 1 90.0 120.0 3.0 6.5 90.0 120.0 False 4.0 180.0 120.0 1.5 3.0 2135.50073088 3.47491502762
83 188.790441942 299.416529473 -1 90.0 120.0 3.0 6.5 90.0 120.0 True 4.0 180.0 120.0 1.75 3.0 -3081.95955806 5.19919300079
84 166.285519549 82.0245272221 1 90.0 120.0 3.0 6.5 90.0 120.0 False 4.0 180.0 120.0 2.5 3.0 5536.28551955 5.96897101402
85 43.1604800104 229.816477198 -1 90.0 120.0 3.0 6.5 90.0 120.0 True 4.0 180.0 120.0 1.5 3.0 43.1604800104 0.0
86 110.280511921 276.543269951 -1 90.0 120.0 3.0 6.5 90.0 120.0 False 4.0 180.0 120.0 2.0 3.0 -1893.71948808 2.7915699482
87 316.625592613 357.490534099 -1 90.0 120.0 3.0 6.5 90.0 120.0 True 4.0 180.0 120.0 0.75 3.0 -1044.62440739 5.05037498474
88 22.5709711939 83.1449840785 1 90.0 120.0 3.0 6.5 90.0 120.0 True 4.0 180.0 120.0 2.75 3.0 3149.32097119 3.15955901146
89 99.5155434965 91.3834249136 1 90.0 120.0 3.0 6.5 90.0 120.0 False 4.0 180.0 120.0 0.75 3.0 1161.5155435 3.93552899361
90 332.788880127 188.969746039 -1 90.0 120.0 3.0 6.5 90.0 120.0 False 4.0 180.0 120.0 1.75 3.0 -2785.71111987 4.95085692406
91 85.6211113949 283.923699803 1 90.0 120.0 3.0 6.5 90.0 120.0 True 4.0 180.0 120.0 1.75 3.0 3839.37111139 5.96579194069
92 96.7391550045 49.088414714 -1 90.0 120.0 3.0 6.5 90.0 120.0 False 4.0 180.0 120.0 2.75 3.0 96.7391550045 0.0
93 53.1206361375 312.568187901 1 90.0 120.0 3.0 6.5 90.0 120.0 False 4.0 180.0 120.0 1.0 3.0 1394.12063614 3.72590398788
94 218.099494516 280.518385413 -1 90.0 120.0 3.0 6.5 90.0 120.0 False 4.0 180.0 120.0 2.5 3.0 -3014.40050548 3.60012602806
95 227.638317432 35.7624114506 1 90.0 120.0 3.0 6.5 90.0 120.0 False 4.0 180.0 120.0 3.25 3.0 5268.38831743 4.31078600883
96 146.303534346 22.4985886822 -1 90.0 120.0 3.0 6.5 90.0 120.0 True 4.0 180.0 120.0 1.0 3.0 -1647.69646565 4.99049401283
97 252.756261617 298.393015321 1 90.0 120.0 3.0 6.5 90.0 120.0 False 4.0 180.0 120.0 2.0 3.0 3126.75626162 3.99833607674
98 282.445206882 170.954916821 1 90.0 120.0 3.0 6.5 90.0 120.0 False 4.0 180.0 120.0 2.75 3.0 3730.94520688 3.49193191528
99 265.50966405 130.806846013 -1 90.0 120.0 3.0 6.5 90.0 120.0 False 4.0 180.0 120.0 2.0 3.0 -3262.49033595 4.9077270031
100 70.2961984702 322.157925737 1 90.0 120.0 3.0 6.5 90.0 120.0 True 4.0 180.0 120.0 3.25 3.0 3599.79619847 3.02546095848
101 38.3364704776 62.0127217689 -1 90.0 120.0 3.0 6.5 90.0 120.0 False 4.0 180.0 120.0 2.75 3.0 -3195.66352952 3.27571296692
102 162.54387695 120.25486194 1 90.0 120.0 3.0 6.5 90.0 120.0 False 4.0 180.0 120.0 1.75 3.0 3454.29387695 5.23204898834
103 248.313991238 158.003255939 -1 90.0 120.0 3.0 6.5 90.0 120.0 False 4.0 180.0 120.0 3.5 3.0 -4875.68600876 4.06900596619
104 33.1006938172 12.5078931343 -1 90.0 120.0 3.0 6.5 90.0 120.0 False 4.0 180.0 120.0 2.5 3.0 -3011.89930618 3.39186000824
105 176.924196369 52.1937445978 -1 90.0 120.0 3.0 6.5 90.0 120.0 True 4.0 180.0 120.0 3.0 3.0 -5115.07580363 4.90788602829
106 210.008529836 72.5212672738 1 90.0 120.0 3.0 6.5 90.0 120.0 False 4.0 180.0 120.0 1.0 3.0 1497.00852984 3.58339095116
107 207.388516037 29.1464412435 -1 90.0 120.0 3.0 6.5 90.0 120.0 True 4.0 180.0 120.0 3.5 3.0 -5903.61148396 4.85878300667
108 13.3690493315 202.957798648 1 90.0 120.0 3.0 6.5 90.0 120.0 True 4.0 180.0 120.0 1.0 3.0 1807.36904933 4.98979091644
109 312.124828076 284.727871589 1 90.0 120.0 3.0 6.5 90.0 120.0 True 4.0 180.0 120.0 2.75 3.0 3455.37482808 3.18254184723
110 340.507296147 312.319165984 1 90.0 120.0 3.0 6.5 90.0 120.0 True 4.0 180.0 120.0 3.0 3.0 3094.50729615 2.55904388428
111 206.648503993 195.530992901 1 90.0 120.0 3.0 6.5 90.0 120.0 False 4.0 180.0 120.0 3.0 3.0 3203.64850399 2.78261685371
112 295.499554699 68.3564135019 -1 90.0 120.0 3.0 6.5 90.0 120.0 True 4.0 180.0 120.0 1.75 3.0 -1941.0004453 3.55877685547
113 236.373501473 144.290909427 1 90.0 120.0 3.0 6.5 90.0 120.0 False 4.0 180.0 120.0 1.25 3.0 1957.62350147 3.83382105827
114 40.9859293308 119.599431627 -1 90.0 120.0 3.0 6.5 90.0 120.0 True 4.0 180.0 120.0 3.25 3.0 -6910.76407067 5.94940590858
115 319.638863399 37.9508891668 1 90.0 120.0 3.0 6.5 90.0 120.0 False 4.0 180.0 120.0 3.25 3.0 319.638863399 0.0
116 227.054061987 146.750589657 -1 90.0 120.0 3.0 6.5 90.0 120.0 True 4.0 180.0 120.0 1.0 3.0 -747.945938013 2.71674394608
117 5.86219956221 205.01242024 -1 90.0 120.0 3.0 6.5 90.0 120.0 False 4.0 180.0 120.0 1.75 3.0 -2928.88780044 4.66647601128
118 158.141748916 38.0628024608 -1 90.0 120.0 3.0 6.5 90.0 120.0 True 4.0 180.0 120.0 2.75 3.0 -3348.10825108 3.54890608788
119 28.8280396802 28.846825204 -1 90.0 120.0 3.0 6.5 90.0 120.0 False 4.0 180.0 120.0 2.25 3.0 -2988.42196032 3.73355793953
120 117.826859189 269.883501964 1 90.0 120.0 3.0 6.5 90.0 120.0 False 4.0 180.0 120.0 0.75 3.0 1348.57685919 4.56559300423
121 260.957262804 96.1997197448 -1 90.0 120.0 3.0 6.5 90.0 120.0 False 4.0 180.0 120.0 1.0 3.0 -1374.0427372 4.5492939949
122 77.3300513665 226.502835424 -1 90.0 120.0 3.0 6.5 90.0 120.0 True 4.0 180.0 120.0 2.25 3.0 -4276.41994863 5.37676000595
123 36.1846166731 269.835384852 -1 90.0 120.0 3.0 6.5 90.0 120.0 False 4.0 180.0 120.0 1.25 3.0 -2401.31538333 5.42552399635
124 259.097975698 70.8929843639 1 90.0 120.0 3.0 6.5 90.0 120.0 False 4.0 180.0 120.0 2.25 3.0 3148.0979757 3.57519698143
125 200.135185141 15.0465976641 -1 90.0 120.0 3.0 6.5 90.0 120.0 False 4.0 180.0 120.0 1.5 3.0 -2558.36481486 5.11565494537
126 55.7210649461 164.7816725 -1 90.0 120.0 3.0 6.5 90.0 120.0 False 4.0 180.0 120.0 0.75 3.0 -1071.52893505 4.18296289444
127 73.6141801232 77.5237963887 1 90.0 120.0 3.0 6.5 90.0 120.0 False 4.0 180.0 120.0 1.5 3.0 2670.11418012 4.80975198746
128 67.7159344037 265.921142607 -1 90.0 120.0 3.0 6.5 90.0 120.0 True 4.0 180.0 120.0 1.5 3.0 -2339.7840656 4.46716594696
129 238.354096766 31.1206552931 -1 90.0 120.0 3.0 6.5 90.0 120.0 False 4.0 180.0 120.0 3.0 3.0 -4630.64590323 4.51621890068
130 292.265445043 310.069006655 1 90.0 120.0 3.0 6.5 90.0 120.0 True 4.0 180.0 120.0 2.25 3.0 4760.76544504 5.52523493767
131 227.213366714 328.948147545 1 90.0 120.0 3.0 6.5 90.0 120.0 False 4.0 180.0 120.0 2.5 3.0 3054.71336671 3.14999985695
132 238.051142001 335.90411815 1 90.0 120.0 3.0 6.5 90.0 120.0 True 4.0 180.0 120.0 3.5 3.0 3377.551142 2.49863982201
133 245.409986243 202.998535816 1 90.0 120.0 3.0 6.5 90.0 120.0 True 4.0 180.0 120.0 0.75 3.0 1098.15998624 3.15940999985
134 79.759004161 131.18250303 1 90.0 120.0 3.0 6.5 90.0 120.0 True 4.0 180.0 120.0 1.75 3.0 2426.50900416 3.73231005669
135 175.719265523 109.141186972 1 90.0 120.0 3.0 6.5 90.0 120.0 True 4.0 180.0 120.0 2.0 3.0 3025.71926552 3.96017098427
136 146.250728003 60.3732410768 1 90.0 120.0 3.0 6.5 90.0 120.0 True 4.0 180.0 120.0 1.25 3.0 2017.500728 4.15854382515
137 254.356608365 99.5040755354 1 90.0 120.0 3.0 6.5 90.0 120.0 True 4.0 180.0 120.0 2.5 3.0 4469.35660837 4.69135594368
138 207.398528988 273.185070576 -1 90.0 120.0 3.0 6.5 90.0 120.0 True 4.0 180.0 120.0 2.0 3.0 -2498.60147101 3.75980615616
139 220.105213571 179.729673977 1 90.0 120.0 3.0 6.5 90.0 120.0 False 4.0 180.0 120.0 3.5 3.0 3370.10521357 2.50747418404
140 308.131065652 99.842800981 -1 90.0 120.0 3.0 6.5 90.0 120.0 True 4.0 180.0 120.0 2.5 3.0 -3059.36893435 3.74286794662
141 353.457191046 320.779763878 1 90.0 120.0 3.0 6.5 90.0 120.0 True 4.0 180.0 120.0 1.5 3.0 2567.45719105 4.10743904114
142 342.931071954 109.174443805 -1 90.0 120.0 3.0 6.5 90.0 120.0 True 4.0 180.0 120.0 0.75 3.0 -602.068928046 3.50874209404
143 333.573435531 28.3300505427 -1 90.0 120.0 3.0 6.5 90.0 120.0 False 4.0 180.0 120.0 3.25 3.0 -3205.67656447 3.03275609016
144 100.540684693 230.448881058 -1 90.0 120.0 3.0 6.5 90.0 120.0 True 4.0 180.0 120.0 1.25 3.0 -1568.20931531 3.71618390083
