trial angleIni angleLandmark direction durationRampingIni durationFinal sizeLandmark radiusLandmark durationRampingFinal durationIni same radius duration durationRampingLand freq size response responseTime
1 200.124541986 330.613321996 -1 90.0 120.0 3.0 6.5 90.0 120.0 True 4.0 180.0 120.0 2.75 3.0 -3520.62545801 3.76565003395
2 133.327155645 130.639306472 1 90.0 120.0 3.0 6.5 90.0 120.0 False 4.0 180.0 120.0 3.0 3.0 4867.32715564 4.39169001579
3 212.483296477 22.2592049724 -1 90.0 120.0 3.0 6.5 90.0 120.0 True 4.0 180.0 120.0 3.0 3.0 -4026.51670352 3.93191480637
4 72.2464363784 202.351737261 1 90.0 120.0 3.0 6.5 90.0 120.0 False 4.0 180.0 120.0 1.0 3.0 1131.24643638 2.94365406036
5 47.5659949302 64.8322715182 1 90.0 120.0 3.0 6.5 90.0 120.0 True 4.0 180.0 120.0 3.0 3.0 4322.56599493 3.96062707901
6 139.054049354 180.987355135 -1 90.0 120.0 3.0 6.5 90.0 120.0 False 4.0 180.0 120.0 1.25 3.0 -1409.69595065 3.44933605194
7 225.757893924 267.316033413 1 90.0 120.0 3.0 6.5 90.0 120.0 False 4.0 180.0 120.0 1.25 3.0 2232.00789392 4.46573185921
8 112.186981093 214.746558326 1 90.0 120.0 3.0 6.5 90.0 120.0 True 4.0 180.0 120.0 2.5 3.0 4019.68698109 4.34267401695
9 81.9367536034 311.803326756 1 90.0 120.0 3.0 6.5 90.0 120.0 True 4.0 180.0 120.0 1.75 3.0 2790.9367536 4.30835103989
10 109.517411862 270.42981497 1 90.0 120.0 3.0 6.5 90.0 120.0 True 4.0 180.0 120.0 1.5 3.0 2526.01741186 4.48255491257
11 147.011302661 220.939262386 1 90.0 120.0 3.0 6.5 90.0 120.0 False 4.0 180.0 120.0 1.5 3.0 2923.51130266 5.15044903755
12 229.178006006 317.517687958 1 90.0 120.0 3.0 6.5 90.0 120.0 False 4.0 180.0 120.0 1.75 3.0 3111.42800601 4.58197498322
13 290.559701178 173.131167418 -1 90.0 120.0 3.0 6.5 90.0 120.0 False 4.0 180.0 120.0 3.0 3.0 -4020.44029882 3.99955916405
14 216.226235011 252.705995654 -1 90.0 120.0 3.0 6.5 90.0 120.0 True 4.0 180.0 120.0 2.5 3.0 -4058.77376499 4.75740695
15 347.598052809 135.105369712 1 90.0 120.0 3.0 6.5 90.0 120.0 False 4.0 180.0 120.0 2.0 3.0 4493.59805281 5.76676487923
16 173.638438128 222.728637832 1 90.0 120.0 3.0 6.5 90.0 120.0 False 4.0 180.0 120.0 2.75 3.0 4653.38843813 4.53343105316
17 286.153530774 79.9703929261 1 90.0 120.0 3.0 6.5 90.0 120.0 True 4.0 180.0 120.0 2.0 3.0 3796.15353077 4.88201904297
18 152.803434183 16.7224528377 1 90.0 120.0 3.0 6.5 90.0 120.0 False 4.0 180.0 120.0 2.25 3.0 4283.80343418 5.10276198387
19 11.6388204889 162.686422341 -1 90.0 120.0 3.0 6.5 90.0 120.0 False 4.0 180.0 120.0 2.0 3.0 -3666.36117951 5.1168448925
20 32.6975192515 288.21070562 -1 90.0 120.0 3.0 6.5 90.0 120.0 True 4.0 180.0 120.0 2.0 3.0 -3369.30248075 4.73341298103
21 354.988710761 9.1138260673 -1 90.0 120.0 3.0 6.5 90.0 120.0 False 4.0 180.0 120.0 2.75 3.0 -3885.51128924 4.2844889164
22 251.268233352 106.584922353 1 90.0 120.0 3.0 6.5 90.0 120.0 True 4.0 180.0 120.0 2.25 3.0 3747.76823335 4.32430887222
23 336.485448807 352.418865945 1 90.0 120.0 3.0 6.5 90.0 120.0 True 4.0 180.0 120.0 2.75 3.0 4799.73544881 4.51610803604
24 260.637971999 219.026465569 -1 90.0 120.0 3.0 6.5 90.0 120.0 True 4.0 180.0 120.0 1.25 3.0 -1681.862028 4.32508087158
25 232.713224731 124.742115189 -1 90.0 120.0 3.0 6.5 90.0 120.0 True 4.0 180.0 120.0 1.0 3.0 -1102.28677527 3.71610093117
26 214.212945083 331.480699858 -1 90.0 120.0 3.0 6.5 90.0 120.0 True 4.0 180.0 120.0 1.75 3.0 -2589.28705492 4.45652198792
27 64.8097005467 234.087707418 -1 90.0 120.0 3.0 6.5 90.0 120.0 False 4.0 180.0 120.0 2.5 3.0 -3737.69029945 4.23339295387
28 350.58534085 131.799752885 -1 90.0 120.0 3.0 6.5 90.0 120.0 False 4.0 180.0 120.0 1.75 3.0 -2290.16465915 4.19939088821
29 27.1623921596 153.684475893 1 90.0 120.0 3.0 6.5 90.0 120.0 True 4.0 180.0 120.0 1.25 3.0 1958.41239216 4.30047011375
30 354.880022534 318.049667455 -1 90.0 120.0 3.0 6.5 90.0 120.0 False 4.0 180.0 120.0 1.0 3.0 -1445.11997747 5.00689101219
31 248.011302451 274.122189741 1 90.0 120.0 3.0 6.5 90.0 120.0 False 4.0 180.0 120.0 2.5 3.0 4343.01130245 4.5586848259
32 104.533867293 271.235050786 -1 90.0 120.0 3.0 6.5 90.0 120.0 True 4.0 180.0 120.0 1.5 3.0 -2388.46613271 4.6184630394
33 94.7663689238 264.433342793 1 90.0 120.0 3.0 6.5 90.0 120.0 True 4.0 180.0 120.0 1.0 3.0 1489.76636892 3.88156414032
34 4.541276655 73.9064221339 -1 90.0 120.0 3.0 6.5 90.0 120.0 True 4.0 180.0 120.0 2.25 3.0 -4031.95872335 4.9906539917
35 339.125483258 83.2446433456 -1 90.0 120.0 3.0 6.5 90.0 120.0 False 4.0 180.0 120.0 2.25 3.0 -3467.87451674 4.70765995979
36 317.136151858 105.908134565 -1 90.0 120.0 3.0 6.5 90.0 120.0 False 4.0 180.0 120.0 1.5 3.0 -2031.86384814 4.35675597191
37 262.254035092 117.592784908 1 90.0 120.0 3.0 6.5 90.0 120.0 False 4.0 180.0 120.0 2.25 3.0 4008.50403509 4.62750196457
38 21.7601480896 235.314173133 -1 90.0 120.0 3.0 6.5 90.0 120.0 False 4.0 180.0 120.0 1.5 3.0 -2556.73985191 4.78168201447
39 40.2816081953 175.904264359 1 90.0 120.0 3.0 6.5 90.0 120.0 False 4.0 180.0 120.0 2.5 3.0 4315.2816082 4.75750303268
40 345.371580196 37.9610115527 -1 90.0 120.0 3.0 6.5 90.0 120.0 False 4.0 180.0 120.0 2.5 3.0 -3509.6284198 4.29103279114
41 285.817533328 63.0053369614 1 90.0 120.0 3.0 6.5 90.0 120.0 True 4.0 180.0 120.0 3.0 3.0 5172.81753333 4.5320110321
42 148.342117995 163.504283975 1 90.0 120.0 3.0 6.5 90.0 120.0 False 4.0 180.0 120.0 1.0 3.0 1369.342118 3.39277696609
43 269.613302535 215.617336393 -1 90.0 120.0 3.0 6.5 90.0 120.0 False 4.0 180.0 120.0 2.25 3.0 9999 9999
44 68.4067527427 120.147903948 -1 90.0 120.0 3.0 6.5 90.0 120.0 False 4.0 180.0 120.0 1.75 3.0 31.6567527427 0.0659070014954
45 112.817957057 222.243028268 1 90.0 120.0 3.0 6.5 90.0 120.0 False 4.0 180.0 120.0 1.75 3.0 3378.31795706 5.18509912491
46 114.761261093 348.462043364 -1 90.0 120.0 3.0 6.5 90.0 120.0 True 4.0 180.0 120.0 1.75 3.0 -2489.23873891 4.14125800133
47 213.071128831 285.809023535 1 90.0 120.0 3.0 6.5 90.0 120.0 True 4.0 180.0 120.0 2.5 3.0 4210.57112883 4.44886398315
48 39.3297206417 41.2251384533 1 90.0 120.0 3.0 6.5 90.0 120.0 False 4.0 180.0 120.0 2.0 3.0 3063.32972064 4.20113897324
49 5.23832738668 206.444132404 1 90.0 120.0 3.0 6.5 90.0 120.0 True 4.0 180.0 120.0 1.5 3.0 2187.73832739 4.04977703094
50 182.155416928 152.341992371 -1 90.0 120.0 3.0 6.5 90.0 120.0 True 4.0 180.0 120.0 1.5 3.0 -2373.84458307 4.74197888374
51 242.345208862 289.984250208 -1 90.0 120.0 3.0 6.5 90.0 120.0 True 4.0 180.0 120.0 2.0 3.0 -3183.65479114 4.75962090492
52 325.054510116 234.467293655 -1 90.0 120.0 3.0 6.5 90.0 120.0 False 4.0 180.0 120.0 2.0 3.0 -3868.94548988 5.83318305016
53 143.667578787 192.922651936 1 90.0 120.0 3.0 6.5 90.0 120.0 False 4.0 180.0 120.0 3.0 3.0 5804.66757879 5.25015187263
54 340.312244966 315.690029093 -1 90.0 120.0 3.0 6.5 90.0 120.0 True 4.0 180.0 120.0 2.25 3.0 -3655.68775503 4.93540906906
55 115.27528661 284.900720454 -1 90.0 120.0 3.0 6.5 90.0 120.0 True 4.0 180.0 120.0 2.5 3.0 -4617.22471339 5.26617097855
56 54.97583068 195.423868083 1 90.0 120.0 3.0 6.5 90.0 120.0 True 4.0 180.0 120.0 1.0 3.0 1416.97583068 3.7913069725
57 127.733045027 202.514899328 -1 90.0 120.0 3.0 6.5 90.0 120.0 True 4.0 180.0 120.0 3.0 3.0 -3976.26695497 3.80687594414
58 111.960402372 230.071628008 -1 90.0 120.0 3.0 6.5 90.0 120.0 True 4.0 180.0 120.0 2.75 3.0 -4400.78959763 4.56687188148
59 309.7334094 287.407487632 1 90.0 120.0 3.0 6.5 90.0 120.0 False 4.0 180.0 120.0 1.25 3.0 2383.4834094 4.61494588852
60 194.959772754 323.911331012 -1 90.0 120.0 3.0 6.5 90.0 120.0 False 4.0 180.0 120.0 1.25 3.0 -1822.54022725 4.49136400223
61 102.005106218 295.340694879 1 90.0 120.0 3.0 6.5 90.0 120.0 True 4.0 180.0 120.0 2.0 3.0 3444.00510622 4.649725914
62 216.565448462 277.448612703 1 90.0 120.0 3.0 6.5 90.0 120.0 True 4.0 180.0 120.0 2.25 3.0 4043.81544846 4.72622203827
63 262.313908894 67.8375948664 -1 90.0 120.0 3.0 6.5 90.0 120.0 False 4.0 180.0 120.0 2.75 3.0 -4803.18609111 5.12773704529
64 189.424714502 327.640309315 -1 90.0 120.0 3.0 6.5 90.0 120.0 False 4.0 180.0 120.0 1.0 3.0 -1160.5752855 3.75753211975
65 36.7059564035 229.428339497 1 90.0 120.0 3.0 6.5 90.0 120.0 True 4.0 180.0 120.0 1.75 3.0 9999 9999
66 247.087851889 194.912616312 1 90.0 120.0 3.0 6.5 90.0 120.0 False 4.0 180.0 120.0 1.5 3.0 314.587851889 0.133260965347
67 352.696774457 336.924353373 1 90.0 120.0 3.0 6.5 90.0 120.0 True 4.0 180.0 120.0 2.75 3.0 4362.19677446 4.05789899826
68 95.0878582054 19.3433307926 -1 90.0 120.0 3.0 6.5 90.0 120.0 True 4.0 180.0 120.0 1.25 3.0 -1566.16214179 3.69202399254
69 153.031691218 286.259837875 -1 90.0 120.0 3.0 6.5 90.0 120.0 False 4.0 180.0 120.0 3.0 3.0 -5003.96830878 4.78262996674
70 341.953780325 198.151697891 -1 90.0 120.0 3.0 6.5 90.0 120.0 True 4.0 180.0 120.0 1.0 3.0 -867.046219675 3.36511492729
71 322.461170432 82.2960389254 1 90.0 120.0 3.0 6.5 90.0 120.0 True 4.0 180.0 120.0 1.25 3.0 2047.46117043 3.84095597267
72 184.066883091 30.4261645275 1 90.0 120.0 3.0 6.5 90.0 120.0 False 4.0 180.0 120.0 2.75 3.0 4523.56688309 4.39211297035
73 36.6991526468 158.114845471 -1 90.0 120.0 3.0 6.5 90.0 120.0 False 4.0 180.0 120.0 2.25 3.0 -3709.55084735 4.63259911537
74 244.527034348 267.782162959 -1 90.0 120.0 3.0 6.5 90.0 120.0 True 4.0 180.0 120.0 2.0 3.0 -3235.47296565 4.84116506577
75 10.8824153501 130.581810394 1 90.0 120.0 3.0 6.5 90.0 120.0 False 4.0 180.0 120.0 2.25 3.0 4229.63241535 5.21564292908
76 328.176007743 199.241851962 1 90.0 120.0 3.0 6.5 90.0 120.0 True 4.0 180.0 120.0 2.5 3.0 4528.17600774 4.66854786873
77 29.2861593363 246.716028559 -1 90.0 120.0 3.0 6.5 90.0 120.0 True 4.0 180.0 120.0 1.0 3.0 -1338.71384066 3.80843997002
78 147.201062838 335.500198928 -1 90.0 120.0 3.0 6.5 90.0 120.0 True 4.0 180.0 120.0 3.0 3.0 -4352.79893716 4.17524290085
79 328.458086679 39.6494675679 -1 90.0 120.0 3.0 6.5 90.0 120.0 True 4.0 180.0 120.0 2.25 3.0 -3478.54191332 4.70811104774
80 297.204316565 359.422179096 1 90.0 120.0 3.0 6.5 90.0 120.0 True 4.0 180.0 120.0 1.75 3.0 3242.45431656 4.68229603767
81 264.136495812 87.3244269404 -1 90.0 120.0 3.0 6.5 90.0 120.0 True 4.0 180.0 120.0 2.75 3.0 9999 9999
82 188.573018367 100.360697983 1 90.0 120.0 3.0 6.5 90.0 120.0 True 4.0 180.0 120.0 2.25 3.0 188.573018367 0.00743198394775
83 349.419967931 219.813659688 1 90.0 120.0 3.0 6.5 90.0 120.0 False 4.0 180.0 120.0 2.5 3.0 3986.91996793 4.04398298264
84 8.06536223796 215.160335407 -1 90.0 120.0 3.0 6.5 90.0 120.0 False 4.0 180.0 120.0 1.75 3.0 -3010.68463776 4.79913711548
85 100.52602807 6.95838318223 -1 90.0 120.0 3.0 6.5 90.0 120.0 False 4.0 180.0 120.0 2.5 3.0 -3941.97397193 4.49868917465
86 9.72162961669 325.357667089 1 90.0 120.0 3.0 6.5 90.0 120.0 True 4.0 180.0 120.0 2.0 3.0 4029.72162962 5.590061903
87 124.215390675 51.7497411747 1 90.0 120.0 3.0 6.5 90.0 120.0 False 4.0 180.0 120.0 2.0 3.0 3772.21539067 5.07464504242
88 150.493985571 159.766165765 1 90.0 120.0 3.0 6.5 90.0 120.0 True 4.0 180.0 120.0 2.75 3.0 4803.49398557 4.70832085609
89 276.614211435 287.072043255 1 90.0 120.0 3.0 6.5 90.0 120.0 True 4.0 180.0 120.0 3.0 3.0 5757.61421143 5.08270001411
90 248.953741497 330.863184317 1 90.0 120.0 3.0 6.5 90.0 120.0 False 4.0 180.0 120.0 1.25 3.0 2468.9537415 4.9413599968
91 227.925051437 348.123913433 1 90.0 120.0 3.0 6.5 90.0 120.0 True 4.0 180.0 120.0 1.25 3.0 2496.67505144 5.04885911942
92 128.800573281 69.0025387657 -1 90.0 120.0 3.0 6.5 90.0 120.0 False 4.0 180.0 120.0 1.25 3.0 -1704.94942672 4.0830218792
93 284.179946815 322.579385124 -1 90.0 120.0 3.0 6.5 90.0 120.0 False 4.0 180.0 120.0 3.0 3.0 -4521.82005318 4.45827388763
94 288.720423067 289.945890308 -1 90.0 120.0 3.0 6.5 90.0 120.0 False 4.0 180.0 120.0 1.0 3.0 -1103.27957693 3.87322592735
95 258.926722971 220.977350126 -1 90.0 120.0 3.0 6.5 90.0 120.0 True 4.0 180.0 120.0 1.25 3.0 -1466.07327703 3.84174394608
96 11.2986296022 138.691634365 1 90.0 120.0 3.0 6.5 90.0 120.0 True 4.0 180.0 120.0 1.5 3.0 2855.2986296 5.27426600456
97 289.21778855 147.101262899 -1 90.0 120.0 3.0 6.5 90.0 120.0 False 4.0 180.0 120.0 2.0 3.0 -3280.78221145 4.96031284332
98 342.534308495 16.1770519122 1 90.0 120.0 3.0 6.5 90.0 120.0 False 4.0 180.0 120.0 1.75 3.0 3466.28430849 4.96108984947
99 289.682225392 110.539442186 -1 90.0 120.0 3.0 6.5 90.0 120.0 False 4.0 180.0 120.0 2.75 3.0 -3967.31777461 4.30819201469
100 148.673378277 58.6091198252 1 90.0 120.0 3.0 6.5 90.0 120.0 True 4.0 180.0 120.0 1.0 3.0 1630.67337828 4.12485694885
101 14.8835852417 316.356691344 1 90.0 120.0 3.0 6.5 90.0 120.0 False 4.0 180.0 120.0 2.75 3.0 4271.88358524 4.30855989456
102 220.599316574 39.2367726722 1 90.0 120.0 3.0 6.5 90.0 120.0 False 4.0 180.0 120.0 1.5 3.0 2731.59931657 4.65845394135
103 242.949419004 50.2027138814 1 90.0 120.0 3.0 6.5 90.0 120.0 False 4.0 180.0 120.0 3.0 3.0 4589.949419 4.03161501884
104 309.693362819 40.6924423312 -1 90.0 120.0 3.0 6.5 90.0 120.0 True 4.0 180.0 120.0 2.5 3.0 -4820.30663718 5.70832514763
105 174.730840559 150.61881633 -1 90.0 120.0 3.0 6.5 90.0 120.0 False 4.0 180.0 120.0 1.5 3.0 -2178.76915944 4.35988497734
106 242.215040913 84.1115109776 1 90.0 120.0 3.0 6.5 90.0 120.0 False 4.0 180.0 120.0 1.0 3.0 1679.21504091 3.9998319149
107 145.08964653 306.400528673 -1 90.0 120.0 3.0 6.5 90.0 120.0 True 4.0 180.0 120.0 1.5 3.0 -3072.41035347 5.95973181725
108 134.982253206 142.889418826 -1 90.0 120.0 3.0 6.5 90.0 120.0 True 4.0 180.0 120.0 1.75 3.0 134.982253206 0.0
