trial angleIni angleLandmark direction durationRampingIni durationFinal sizeLandmark radiusLandmark durationRampingFinal durationIni same radius duration durationRampingLand freq size response responseTime
1 184.9899314 32.2696305972 1 90.0 120.0 3.0 6.5 90.0 120.0 False 4.0 180.0 120.0 1.25 3.0 1666.2399314 3.30210113525
2 332.188491889 87.0982145433 1 90.0 120.0 3.0 6.5 90.0 120.0 True 4.0 180.0 120.0 1.0 3.0 1688.18849189 3.77423596382
3 247.371179096 134.954872811 -1 90.0 120.0 3.0 6.5 90.0 120.0 True 4.0 180.0 120.0 1.75 3.0 -2472.1288209 4.32463407516
4 182.935675707 326.226837587 -1 90.0 120.0 3.0 6.5 90.0 120.0 False 4.0 180.0 120.0 2.0 3.0 -3291.06432429 4.82671499252
5 271.187520322 166.455298084 -1 90.0 120.0 3.0 6.5 90.0 120.0 False 4.0 180.0 120.0 2.75 3.0 -2443.06247968 2.75013995171
6 47.6925776971 189.84358361 -1 90.0 120.0 3.0 6.5 90.0 120.0 False 4.0 180.0 120.0 2.25 3.0 -3307.0574223 4.15047502518
7 264.094502542 175.36421964 -1 90.0 120.0 3.0 6.5 90.0 120.0 True 4.0 180.0 120.0 2.0 3.0 -2879.90549746 4.36827921867
8 183.668723832 110.511171221 1 90.0 120.0 3.0 6.5 90.0 120.0 False 4.0 180.0 120.0 1.5 3.0 2649.66872383 4.56818604469
9 283.377858825 53.5911677621 -1 90.0 120.0 3.0 6.5 90.0 120.0 False 4.0 180.0 120.0 1.5 3.0 -2538.12214118 5.23223805428
10 130.786688524 38.2480247863 1 90.0 120.0 3.0 6.5 90.0 120.0 False 4.0 180.0 120.0 2.75 3.0 5188.03668852 5.11545395851
11 304.527696757 172.109696891 -1 90.0 120.0 3.0 6.5 90.0 120.0 True 4.0 180.0 120.0 1.5 3.0 -2462.97230324 5.13363409042
12 99.5321490726 305.870403606 1 90.0 120.0 3.0 6.5 90.0 120.0 False 4.0 180.0 120.0 2.5 3.0 4667.03214907 5.08215999603
13 189.263156634 305.900345773 1 90.0 120.0 3.0 6.5 90.0 120.0 True 4.0 180.0 120.0 1.75 3.0 9999 9999
14 13.7279314704 92.1033263612 -1 90.0 120.0 3.0 6.5 90.0 120.0 True 4.0 180.0 120.0 1.0 3.0 -10.2720685296 0.0748381614685
15 192.063825055 156.083712335 -1 90.0 120.0 3.0 6.5 90.0 120.0 True 4.0 180.0 120.0 1.25 3.0 -1652.93617495 4.10702896118
16 271.838958922 56.8593977464 1 90.0 120.0 3.0 6.5 90.0 120.0 True 4.0 180.0 120.0 1.5 3.0 2764.83895892 4.62380695343
17 149.395262831 123.219325569 -1 90.0 120.0 3.0 6.5 90.0 120.0 True 4.0 180.0 120.0 2.5 3.0 -3458.10473717 4.0153439045
18 250.75459714 326.416438482 -1 90.0 120.0 3.0 6.5 90.0 120.0 True 4.0 180.0 120.0 2.75 3.0 -3643.24540286 3.93486905098
19 155.989162977 210.695571491 1 90.0 120.0 3.0 6.5 90.0 120.0 False 4.0 180.0 120.0 0.75 3.0 1112.23916298 3.54349589348
20 334.778060001 184.574475211 1 90.0 120.0 3.0 6.5 90.0 120.0 False 4.0 180.0 120.0 2.0 3.0 3340.77806 4.18180608749
21 91.4061545912 245.536824263 -1 90.0 120.0 3.0 6.5 90.0 120.0 False 4.0 180.0 120.0 2.5 3.0 -3366.09384541 3.85012102127
22 49.7740472124 248.85547774 1 90.0 120.0 3.0 6.5 90.0 120.0 True 4.0 180.0 120.0 2.75 3.0 3902.52404721 3.8990240097
23 36.7022103858 59.6475875114 1 90.0 120.0 3.0 6.5 90.0 120.0 False 4.0 180.0 120.0 1.0 3.0 1272.70221039 3.44177293777
24 252.363938681 299.891148339 1 90.0 120.0 3.0 6.5 90.0 120.0 False 4.0 180.0 120.0 2.25 3.0 3316.86393868 3.79084396362
25 147.610163661 124.281421779 -1 90.0 120.0 3.0 6.5 90.0 120.0 False 4.0 180.0 120.0 1.75 3.0 -2692.63983634 4.51093101501
26 123.474107584 229.927299803 1 90.0 120.0 3.0 6.5 90.0 120.0 True 4.0 180.0 120.0 2.0 3.0 3543.47410758 4.75867891312
27 107.268209493 334.764367864 1 90.0 120.0 3.0 6.5 90.0 120.0 True 4.0 180.0 120.0 1.25 3.0 1839.76820949 3.8581571579
28 76.812214281 40.1070269584 -1 90.0 120.0 3.0 6.5 90.0 120.0 False 4.0 180.0 120.0 1.25 3.0 -1959.43778572 4.53374791145
29 230.455028072 273.14933762 -1 90.0 120.0 3.0 6.5 90.0 120.0 False 4.0 180.0 120.0 1.0 3.0 -1491.54497193 4.7906639576
30 28.2644390685 36.2613719064 -1 90.0 120.0 3.0 6.5 90.0 120.0 True 4.0 180.0 120.0 2.25 3.0 -3623.48556093 4.51086616516
31 280.141771285 125.790419555 1 90.0 120.0 3.0 6.5 90.0 120.0 False 4.0 180.0 120.0 1.75 3.0 3025.89177129 4.36511492729
32 165.10210974 186.827272489 1 90.0 120.0 3.0 6.5 90.0 120.0 True 4.0 180.0 120.0 0.75 3.0 1247.35210974 4.01649999619
33 19.4622845697 227.963856621 -1 90.0 120.0 3.0 6.5 90.0 120.0 False 4.0 180.0 120.0 0.75 3.0 -1209.03771543 4.55769109726
34 118.100131451 60.9780060807 -1 90.0 120.0 3.0 6.5 90.0 120.0 True 4.0 180.0 120.0 0.75 3.0 -1006.89986855 4.17479801178
35 44.3948209116 110.304977757 1 90.0 120.0 3.0 6.5 90.0 120.0 True 4.0 180.0 120.0 2.25 3.0 3810.89482091 4.65714502335
36 312.772270471 339.725402898 1 90.0 120.0 3.0 6.5 90.0 120.0 True 4.0 180.0 120.0 2.5 3.0 4047.77227047 4.15775680542
37 73.6352781197 60.6378170161 1 90.0 120.0 3.0 6.5 90.0 120.0 False 4.0 180.0 120.0 2.0 3.0 3253.63527812 4.42357492447
38 356.22912147 97.3314641084 1 90.0 120.0 3.0 6.5 90.0 120.0 False 4.0 180.0 120.0 2.5 3.0 3491.22912147 3.48444914818
39 279.229526333 305.847317336 -1 90.0 120.0 3.0 6.5 90.0 120.0 False 4.0 180.0 120.0 2.0 3.0 -3044.77047367 4.6232380867
40 109.419991736 126.929196166 1 90.0 120.0 3.0 6.5 90.0 120.0 False 4.0 180.0 120.0 1.25 3.0 2246.91999174 4.75707483292
41 243.973758779 213.460029269 -1 90.0 120.0 3.0 6.5 90.0 120.0 True 4.0 180.0 120.0 0.75 3.0 -671.776241221 3.40028691292
42 94.9950199663 23.4241761998 -1 90.0 120.0 3.0 6.5 90.0 120.0 True 4.0 180.0 120.0 2.25 3.0 -3685.00498003 4.67512083054
43 269.110545777 242.073682743 -1 90.0 120.0 3.0 6.5 90.0 120.0 True 4.0 180.0 120.0 2.5 3.0 -2513.38945422 3.09942793846
44 139.183387546 117.151677199 1 90.0 120.0 3.0 6.5 90.0 120.0 True 4.0 180.0 120.0 2.25 3.0 4344.43338755 5.19985818863
45 110.507515303 57.0344602353 -1 90.0 120.0 3.0 6.5 90.0 120.0 False 4.0 180.0 120.0 1.0 3.0 -1188.4924847 3.61671686172
46 242.327017385 259.0001746 1 90.0 120.0 3.0 6.5 90.0 120.0 True 4.0 180.0 120.0 1.5 3.0 3032.32701738 5.17552614212
47 9.85140721804 324.2244711 -1 90.0 120.0 3.0 6.5 90.0 120.0 False 4.0 180.0 120.0 1.25 3.0 -2000.14859278 4.47525882721
48 264.032626346 87.1642285676 1 90.0 120.0 3.0 6.5 90.0 120.0 True 4.0 180.0 120.0 1.0 3.0 2034.03262635 4.92500805855
49 2.12916485484 47.8957932223 -1 90.0 120.0 3.0 6.5 90.0 120.0 True 4.0 180.0 120.0 1.25 3.0 -2161.62083515 4.81038379669
50 258.389914556 274.471564329 -1 90.0 120.0 3.0 6.5 90.0 120.0 False 4.0 180.0 120.0 2.25 3.0 -3447.36008544 10.7501950264
51 316.775433771 5.97348010599 1 90.0 120.0 3.0 6.5 90.0 120.0 True 4.0 180.0 120.0 1.25 3.0 2356.77543377 4.54108715057
52 335.398072372 197.728861007 1 90.0 120.0 3.0 6.5 90.0 120.0 True 4.0 180.0 120.0 2.0 3.0 3089.39807237 3.83171987534
53 302.210581526 145.015386232 -1 90.0 120.0 3.0 6.5 90.0 120.0 False 4.0 180.0 120.0 2.5 3.0 -4160.28941847 4.96588683128
54 263.937070244 297.49752317 1 90.0 120.0 3.0 6.5 90.0 120.0 False 4.0 180.0 120.0 0.75 3.0 1370.93707024 4.10774898529
55 46.2431095885 277.142844095 -1 90.0 120.0 3.0 6.5 90.0 120.0 True 4.0 180.0 120.0 2.0 3.0 9999 9999
56 275.07256023 129.096694361 1 90.0 120.0 3.0 6.5 90.0 120.0 True 4.0 180.0 120.0 2.5 3.0 335.07256023 0.0656080245972
57 344.718724489 338.455751644 1 90.0 120.0 3.0 6.5 90.0 120.0 False 4.0 180.0 120.0 2.75 3.0 4065.46872449 3.76632809639
58 262.766562141 174.82532231 -1 90.0 120.0 3.0 6.5 90.0 120.0 False 4.0 180.0 120.0 1.75 3.0 -2120.73343786 3.79084706306
59 288.235331097 44.5742128248 1 90.0 120.0 3.0 6.5 90.0 120.0 True 4.0 180.0 120.0 0.75 3.0 1478.4853311 4.40985107422
60 221.228028107 183.832980666 -1 90.0 120.0 3.0 6.5 90.0 120.0 True 4.0 180.0 120.0 1.0 3.0 -1425.77197189 4.58292412758
61 217.795235502 90.6508092506 1 90.0 120.0 3.0 6.5 90.0 120.0 False 4.0 180.0 120.0 1.0 3.0 2038.7952355 5.06693601608
62 133.387793088 177.750370598 -1 90.0 120.0 3.0 6.5 90.0 120.0 False 4.0 180.0 120.0 2.75 3.0 -4296.86220691 4.48274612427
63 185.41893422 171.095917336 1 90.0 120.0 3.0 6.5 90.0 120.0 False 4.0 180.0 120.0 1.5 3.0 2610.91893422 4.49926805496
64 304.861261641 162.958292967 -1 90.0 120.0 3.0 6.5 90.0 120.0 False 4.0 180.0 120.0 0.75 3.0 -543.388738359 3.14924097061
65 269.80845232 78.9399750327 -1 90.0 120.0 3.0 6.5 90.0 120.0 False 4.0 180.0 120.0 1.5 3.0 -1746.19154768 3.74108886719
66 161.2978925 35.3692746559 1 90.0 120.0 3.0 6.5 90.0 120.0 True 4.0 180.0 120.0 2.75 3.0 4682.2978925 4.57510995865
67 261.329336363 351.537681412 1 90.0 120.0 3.0 6.5 90.0 120.0 False 4.0 180.0 120.0 1.75 3.0 3038.57933636 4.41049599648
68 285.748276512 0.307787939977 1 90.0 120.0 3.0 6.5 90.0 120.0 False 4.0 180.0 120.0 2.25 3.0 4369.49827651 5.04994320869
69 275.201796444 244.798932576 -1 90.0 120.0 3.0 6.5 90.0 120.0 True 4.0 180.0 120.0 1.5 3.0 -2586.79820356 5.30781388283
70 40.2938353728 53.9878133628 -1 90.0 120.0 3.0 6.5 90.0 120.0 True 4.0 180.0 120.0 1.75 3.0 -2705.45616463 4.36650419235
71 317.163330793 251.135443262 -1 90.0 120.0 3.0 6.5 90.0 120.0 True 4.0 180.0 120.0 2.75 3.0 -4104.83666921 4.47409415245
72 228.296175586 247.278310587 1 90.0 120.0 3.0 6.5 90.0 120.0 True 4.0 180.0 120.0 1.75 3.0 2732.54617559 3.97593092918
73 313.872712406 294.431779468 1 90.0 120.0 3.0 6.5 90.0 120.0 False 4.0 180.0 120.0 2.75 3.0 5445.37271241 5.18504619598
74 13.7567556478 138.266515322 -1 90.0 120.0 3.0 6.5 90.0 120.0 True 4.0 180.0 120.0 1.0 3.0 -1492.24324435 4.18538999557
75 247.015576423 254.723340748 -1 90.0 120.0 3.0 6.5 90.0 120.0 False 4.0 180.0 120.0 1.0 3.0 -1318.98442358 4.35669088364
76 336.700086292 186.419739133 -1 90.0 120.0 3.0 6.5 90.0 120.0 False 4.0 180.0 120.0 1.25 3.0 -1999.54991371 5.19315004349
77 187.48090168 335.219971681 1 90.0 120.0 3.0 6.5 90.0 120.0 True 4.0 180.0 120.0 0.75 3.0 1226.98090168 3.85815501213
78 106.455146504 16.8467124573 1 90.0 120.0 3.0 6.5 90.0 120.0 True 4.0 180.0 120.0 1.5 3.0 2990.9551465 5.34412693977
79 158.776142116 302.357364041 -1 90.0 120.0 3.0 6.5 90.0 120.0 True 4.0 180.0 120.0 2.25 3.0 -4478.47385788 5.72746801376
80 295.961732527 33.9345639052 -1 90.0 120.0 3.0 6.5 90.0 120.0 False 4.0 180.0 120.0 1.75 3.0 -2733.28826747 4.81554484367
81 279.600324821 249.688812101 1 90.0 120.0 3.0 6.5 90.0 120.0 False 4.0 180.0 120.0 1.75 3.0 3314.10032482 4.82342100143
82 154.492448154 280.233584123 -1 90.0 120.0 3.0 6.5 90.0 120.0 True 4.0 180.0 120.0 1.25 3.0 -1893.00755185 4.55782914162
83 217.578084571 113.250590913 -1 90.0 120.0 3.0 6.5 90.0 120.0 True 4.0 180.0 120.0 2.5 3.0 -4042.42191543 4.73616099358
84 356.376781434 138.310900366 -1 90.0 120.0 3.0 6.5 90.0 120.0 False 4.0 180.0 120.0 2.0 3.0 -3267.62321857 5.0399479866
85 274.502463418 280.007070885 1 90.0 120.0 3.0 6.5 90.0 120.0 True 4.0 180.0 120.0 2.5 3.0 4902.00246342 5.14972090721
86 219.915790648 217.319921775 1 90.0 120.0 3.0 6.5 90.0 120.0 False 4.0 180.0 120.0 0.75 3.0 1284.16579065 3.9428589344
87 82.5502241176 255.074651689 -1 90.0 120.0 3.0 6.5 90.0 120.0 True 4.0 180.0 120.0 2.75 3.0 -4751.94977588 4.89118480682
88 332.16690549 35.6346820021 -1 90.0 120.0 3.0 6.5 90.0 120.0 True 4.0 180.0 120.0 1.5 3.0 -2390.33309451 5.04960989952
89 347.303200135 300.064332046 -1 90.0 120.0 3.0 6.5 90.0 120.0 True 4.0 180.0 120.0 2.0 3.0 -3210.69679987 4.94894504547
90 248.827454391 167.71532665 -1 90.0 120.0 3.0 6.5 90.0 120.0 False 4.0 180.0 120.0 1.5 3.0 -2577.17254561 5.24170708656
91 74.8071021345 312.659994978 -1 90.0 120.0 3.0 6.5 90.0 120.0 True 4.0 180.0 120.0 0.75 3.0 -1124.44289787 4.44941020012
92 293.34675699 46.7112604829 1 90.0 120.0 3.0 6.5 90.0 120.0 False 4.0 180.0 120.0 2.25 3.0 4545.84675699 5.25827097893
93 338.685996159 6.21226702404 1 90.0 120.0 3.0 6.5 90.0 120.0 True 4.0 180.0 120.0 2.75 3.0 5041.18599616 4.75808095932
94 259.323956681 342.046521639 1 90.0 120.0 3.0 6.5 90.0 120.0 True 4.0 180.0 120.0 1.0 3.0 1792.32395668 4.2661318779
95 11.2921722533 60.9222869079 1 90.0 120.0 3.0 6.5 90.0 120.0 True 4.0 180.0 120.0 1.75 3.0 3733.54217225 5.91009402275
96 240.533520384 292.41605892 1 90.0 120.0 3.0 6.5 90.0 120.0 False 4.0 180.0 120.0 2.5 3.0 4043.03352038 4.23251390457
97 61.5638929885 289.369797839 1 90.0 120.0 3.0 6.5 90.0 120.0 True 4.0 180.0 120.0 2.25 3.0 3956.31389299 4.81623291969
98 297.311143106 114.518272964 1 90.0 120.0 3.0 6.5 90.0 120.0 True 4.0 180.0 120.0 2.0 3.0 3741.31114311 4.79001498222
99 269.932379879 6.57975275742 -1 90.0 120.0 3.0 6.5 90.0 120.0 False 4.0 180.0 120.0 2.75 3.0 -5125.56762012 5.45654702187
100 29.0672852436 332.18373919 1 90.0 120.0 3.0 6.5 90.0 120.0 False 4.0 180.0 120.0 1.0 3.0 1559.06728524 4.257625103
101 250.633845824 274.482245084 -1 90.0 120.0 3.0 6.5 90.0 120.0 False 4.0 180.0 120.0 2.25 3.0 -2881.36615418 3.8749730587
102 10.7040991817 76.9909350846 1 90.0 120.0 3.0 6.5 90.0 120.0 False 4.0 180.0 120.0 2.0 3.0 4264.70409918 5.90922403336
103 157.533720485 54.3184816094 1 90.0 120.0 3.0 6.5 90.0 120.0 False 4.0 180.0 120.0 1.25 3.0 1680.03372048 3.39155197144
104 240.434485466 297.671870595 -1 90.0 120.0 3.0 6.5 90.0 120.0 False 4.0 180.0 120.0 0.75 3.0 -769.815514534 3.74999690056
105 18.7622611081 221.797371006 -1 90.0 120.0 3.0 6.5 90.0 120.0 False 4.0 180.0 120.0 2.5 3.0 -4473.73773889 4.99955677986
106 146.286101449 34.8702872696 1 90.0 120.0 3.0 6.5 90.0 120.0 True 4.0 180.0 120.0 1.25 3.0 2032.53610145 4.20022392273
107 80.867889311 59.9378088361 -1 90.0 120.0 3.0 6.5 90.0 120.0 True 4.0 180.0 120.0 1.75 3.0 -2580.88211069 4.22761797905
108 107.118239385 345.960637955 1 90.0 120.0 3.0 6.5 90.0 120.0 False 4.0 180.0 120.0 1.5 3.0 3068.11823938 5.49205994606
