trial angleIni angleLandmark direction durationRampingIni durationFinal sizeLandmark radiusLandmark durationRampingFinal durationIni same radius duration durationRampingLand freq size response responseTime
1 186.847691936 13.2466090395 -1 90.0 120.0 3.0 6.5 90.0 120.0 False 4.0 180.0 120.0 2.5 3.0 -3195.65230806 3.76958608627
2 164.634794823 215.158802175 1 90.0 120.0 3.0 6.5 90.0 120.0 False 4.0 180.0 120.0 1.5 3.0 2648.63479482 4.60806298256
3 309.477797127 117.51518678 -1 90.0 120.0 3.0 6.5 90.0 120.0 True 4.0 180.0 120.0 2.25 3.0 -3355.77220287 4.53358316422
4 120.670070034 104.041434067 1 90.0 120.0 3.0 6.5 90.0 120.0 True 4.0 180.0 120.0 2.5 3.0 3915.67007003 4.21889209747
5 345.942249638 120.727603217 1 90.0 120.0 3.0 6.5 90.0 120.0 True 4.0 180.0 120.0 2.0 3.0 3483.94224964 4.36624288559
6 110.455852853 274.024975427 1 90.0 120.0 3.0 6.5 90.0 120.0 False 4.0 180.0 120.0 1.0 3.0 1871.45585285 4.89992499352
7 158.679183721 172.403872912 1 90.0 120.0 3.0 6.5 90.0 120.0 True 4.0 180.0 120.0 0.75 3.0 1054.17918372 3.32438206673
8 142.908080943 254.679877686 -1 90.0 120.0 3.0 6.5 90.0 120.0 False 4.0 180.0 120.0 2.0 3.0 -3181.09191906 4.61944293976
9 16.7116533319 83.6383492934 1 90.0 120.0 3.0 6.5 90.0 120.0 False 4.0 180.0 120.0 1.25 3.0 2229.21165333 4.92474794388
10 188.253266795 320.537768678 1 90.0 120.0 3.0 6.5 90.0 120.0 False 4.0 180.0 120.0 2.25 3.0 4245.00326679 5.00949597359
11 95.3335525213 80.1206645562 1 90.0 120.0 3.0 6.5 90.0 120.0 False 4.0 180.0 120.0 1.75 3.0 3371.33355252 5.20237493515
12 118.139526223 101.230925948 1 90.0 120.0 3.0 6.5 90.0 120.0 True 4.0 180.0 120.0 1.25 3.0 2240.63952622 4.72453117371
13 140.862011664 180.020461229 -1 90.0 120.0 3.0 6.5 90.0 120.0 True 4.0 180.0 120.0 0.75 3.0 -1209.13798834 5.00186300278
14 66.9646611829 279.44290607 -1 90.0 120.0 3.0 6.5 90.0 120.0 False 4.0 180.0 120.0 1.5 3.0 -3087.53533882 5.8486931324
15 314.764441114 123.014106714 -1 90.0 120.0 3.0 6.5 90.0 120.0 False 4.0 180.0 120.0 1.75 3.0 -2336.48555889 4.20891213417
16 276.862533975 313.803195627 1 90.0 120.0 3.0 6.5 90.0 120.0 True 4.0 180.0 120.0 1.0 3.0 1602.86253398 3.69158005714
17 207.701157009 254.791120277 1 90.0 120.0 3.0 6.5 90.0 120.0 False 4.0 180.0 120.0 2.75 3.0 3449.95115701 3.28246307373
18 52.6619809576 182.813203945 -1 90.0 120.0 3.0 6.5 90.0 120.0 True 4.0 180.0 120.0 2.75 3.0 -5318.08801904 5.43333792686
19 30.7846449222 348.410441124 -1 90.0 120.0 3.0 6.5 90.0 120.0 True 4.0 180.0 120.0 2.0 3.0 -3323.21535508 4.66586613655
20 309.479559621 93.5229220894 1 90.0 120.0 3.0 6.5 90.0 120.0 True 4.0 180.0 120.0 2.75 3.0 5119.22955962 4.86726403236
21 297.608811097 13.9531111486 -1 90.0 120.0 3.0 6.5 90.0 120.0 True 4.0 180.0 120.0 1.5 3.0 -2519.3911889 5.22420096397
22 22.5565839588 316.426352208 -1 90.0 120.0 3.0 6.5 90.0 120.0 False 4.0 180.0 120.0 2.75 3.0 -3335.19341604 3.39317512512
23 350.754181709 334.093241484 -1 90.0 120.0 3.0 6.5 90.0 120.0 False 4.0 180.0 120.0 2.25 3.0 -3240.24581829 4.440969944
24 78.706795678 256.202379297 -1 90.0 120.0 3.0 6.5 90.0 120.0 False 4.0 180.0 120.0 0.75 3.0 -785.293204322 3.20787215233
25 88.3451782926 242.199953649 -1 90.0 120.0 3.0 6.5 90.0 120.0 True 4.0 180.0 120.0 1.75 3.0 -2610.15482171 4.29026579857
26 260.210085613 114.063201726 1 90.0 120.0 3.0 6.5 90.0 120.0 True 4.0 180.0 120.0 1.75 3.0 9999 9999
27 27.2788222078 221.071026773 -1 90.0 120.0 3.0 6.5 90.0 120.0 False 4.0 180.0 120.0 1.25 3.0 -1881.47117779 4.2501540184
28 114.796131952 50.5009741392 -1 90.0 120.0 3.0 6.5 90.0 120.0 True 4.0 180.0 120.0 1.0 3.0 -1352.20386805 4.08255696297
29 41.9247164501 159.330897685 1 90.0 120.0 3.0 6.5 90.0 120.0 False 4.0 180.0 120.0 2.5 3.0 3941.92471645 4.33463406563
30 163.863918783 172.320839663 1 90.0 120.0 3.0 6.5 90.0 120.0 True 4.0 180.0 120.0 2.25 3.0 3781.86391878 4.47437882423
31 4.9465353622 0.187406416122 1 90.0 120.0 3.0 6.5 90.0 120.0 False 4.0 180.0 120.0 2.0 3.0 3400.94653536 4.718282938
32 113.681748715 354.172814875 -1 90.0 120.0 3.0 6.5 90.0 120.0 True 4.0 180.0 120.0 2.5 3.0 -3958.81825128 4.52582597733
33 104.621737094 35.2525848916 -1 90.0 120.0 3.0 6.5 90.0 120.0 True 4.0 180.0 120.0 1.25 3.0 -1781.62826291 4.19903993607
34 81.1579727431 250.260780481 1 90.0 120.0 3.0 6.5 90.0 120.0 False 4.0 180.0 120.0 0.75 3.0 958.657972743 3.25742793083
35 253.984961407 207.408895327 -1 90.0 120.0 3.0 6.5 90.0 120.0 False 4.0 180.0 120.0 1.0 3.0 -1045.01503859 3.61573290825
36 238.831016966 79.9527794573 1 90.0 120.0 3.0 6.5 90.0 120.0 True 4.0 180.0 120.0 1.5 3.0 2781.33101697 4.70968103409
37 37.0895702102 116.756124628 1 90.0 120.0 3.0 6.5 90.0 120.0 True 4.0 180.0 120.0 2.0 3.0 3217.08957021 4.42435407639
38 133.309173927 84.2345159761 -1 90.0 120.0 3.0 6.5 90.0 120.0 True 4.0 180.0 120.0 1.25 3.0 -1906.69082607 4.54116487503
39 78.3516031404 216.899730538 1 90.0 120.0 3.0 6.5 90.0 120.0 False 4.0 180.0 120.0 1.25 3.0 2005.85160314 4.28541898727
40 148.094663817 259.641698605 1 90.0 120.0 3.0 6.5 90.0 120.0 True 4.0 180.0 120.0 0.75 3.0 926.594663817 2.89160895348
41 334.28317618 43.4964051725 1 90.0 120.0 3.0 6.5 90.0 120.0 True 4.0 180.0 120.0 2.75 3.0 4096.28317618 3.80678200722
42 333.051120236 156.328715555 1 90.0 120.0 3.0 6.5 90.0 120.0 True 4.0 180.0 120.0 1.75 3.0 3561.80112024 5.13348793983
43 141.428888019 55.5735568911 -1 90.0 120.0 3.0 6.5 90.0 120.0 False 4.0 180.0 120.0 1.5 3.0 -2747.57111198 5.35712099075
44 160.453831053 56.7505072136 1 90.0 120.0 3.0 6.5 90.0 120.0 True 4.0 180.0 120.0 2.25 3.0 4379.20383105 5.21647596359
45 75.003998835 14.9683829614 -1 90.0 120.0 3.0 6.5 90.0 120.0 False 4.0 180.0 120.0 2.25 3.0 -4420.49600116 5.55814099312
46 181.376351222 214.75092112 -1 90.0 120.0 3.0 6.5 90.0 120.0 True 4.0 180.0 120.0 0.75 3.0 -639.873648778 3.04963111877
47 157.174752602 138.852247633 1 90.0 120.0 3.0 6.5 90.0 120.0 False 4.0 180.0 120.0 2.75 3.0 3358.1747526 3.24201989174
48 321.362203421 143.719752194 -1 90.0 120.0 3.0 6.5 90.0 120.0 False 4.0 180.0 120.0 1.25 3.0 -1478.63779658 4.00805687904
49 267.743245547 5.14021969953 1 90.0 120.0 3.0 6.5 90.0 120.0 True 4.0 180.0 120.0 2.5 3.0 4632.74324555 4.85232210159
50 78.5102037099 166.639129783 -1 90.0 120.0 3.0 6.5 90.0 120.0 True 4.0 180.0 120.0 2.0 3.0 -3779.48979629 5.36547803879
51 59.9256996002 196.753886738 1 90.0 120.0 3.0 6.5 90.0 120.0 True 4.0 180.0 120.0 1.0 3.0 1445.9256996 3.85780215263
52 228.697231756 169.315477858 1 90.0 120.0 3.0 6.5 90.0 120.0 False 4.0 180.0 120.0 2.0 3.0 3822.69723176 5.0004119873
53 230.195334642 71.497378639 1 90.0 120.0 3.0 6.5 90.0 120.0 False 4.0 180.0 120.0 1.75 3.0 3317.19533464 4.90813493729
54 327.768215053 341.207915868 1 90.0 120.0 3.0 6.5 90.0 120.0 False 4.0 180.0 120.0 2.25 3.0 4249.51821505 4.84401917458
55 236.929264708 232.344615528 -1 90.0 120.0 3.0 6.5 90.0 120.0 False 4.0 180.0 120.0 1.75 3.0 -3096.82073529 5.29307603836
56 76.4133316127 243.133305168 -1 90.0 120.0 3.0 6.5 90.0 120.0 False 4.0 180.0 120.0 2.5 3.0 -3186.08666839 3.63330984116
57 337.41370256 307.668905615 1 90.0 120.0 3.0 6.5 90.0 120.0 False 4.0 180.0 120.0 0.75 3.0 1172.16370256 3.10005497932
58 127.803011118 41.6223008016 -1 90.0 120.0 3.0 6.5 90.0 120.0 False 4.0 180.0 120.0 1.0 3.0 -1360.19698888 4.14013814926
59 19.583568458 51.527429446 -1 90.0 120.0 3.0 6.5 90.0 120.0 True 4.0 180.0 120.0 2.25 3.0 -3382.41643154 4.20842599869
60 183.90786907 209.240332978 -1 90.0 120.0 3.0 6.5 90.0 120.0 True 4.0 180.0 120.0 1.5 3.0 -1868.09213093 3.80830788612
61 199.994323187 147.066022031 -1 90.0 120.0 3.0 6.5 90.0 120.0 True 4.0 180.0 120.0 1.0 3.0 -922.005676813 3.12503314018
62 184.85098627 257.847683683 1 90.0 120.0 3.0 6.5 90.0 120.0 True 4.0 180.0 120.0 1.5 3.0 2065.85098627 3.49046301842
63 70.8854845959 226.430444155 -1 90.0 120.0 3.0 6.5 90.0 120.0 False 4.0 180.0 120.0 2.75 3.0 -2874.3645154 2.9822909832
64 91.3472417139 163.717571767 -1 90.0 120.0 3.0 6.5 90.0 120.0 False 4.0 180.0 120.0 0.75 3.0 -885.152758286 3.6183950901
65 201.841374707 53.0949054196 -1 90.0 120.0 3.0 6.5 90.0 120.0 True 4.0 180.0 120.0 2.75 3.0 -4979.15862529 5.24099707603
66 94.6852678572 245.055767877 1 90.0 120.0 3.0 6.5 90.0 120.0 False 4.0 180.0 120.0 1.0 3.0 1642.68526786 4.30816793442
67 347.28716799 150.48623886 -1 90.0 120.0 3.0 6.5 90.0 120.0 True 4.0 180.0 120.0 1.75 3.0 -2744.96283201 4.91594290733
68 280.181233892 54.945309887 -1 90.0 120.0 3.0 6.5 90.0 120.0 True 4.0 180.0 120.0 2.5 3.0 -3169.81876611 3.83434891701
69 287.045407694 260.651733387 -1 90.0 120.0 3.0 6.5 90.0 120.0 False 4.0 180.0 120.0 2.0 3.0 -3132.95459231 4.75743699074
70 339.118073902 33.8651426167 1 90.0 120.0 3.0 6.5 90.0 120.0 False 4.0 180.0 120.0 1.5 3.0 2530.6180739 4.06632709503
71 233.078988349 327.460417955 1 90.0 120.0 3.0 6.5 90.0 120.0 False 4.0 180.0 120.0 2.5 3.0 4170.57898835 4.37715101242
72 134.702822031 204.003478602 1 90.0 120.0 3.0 6.5 90.0 120.0 True 4.0 180.0 120.0 1.25 3.0 2005.95282203 4.16608905792
73 172.157985002 201.569660847 -1 90.0 120.0 3.0 6.5 90.0 120.0 True 4.0 180.0 120.0 1.25 3.0 -1890.342015 4.58517098427
74 258.803733896 6.37760676329 1 90.0 120.0 3.0 6.5 90.0 120.0 False 4.0 180.0 120.0 1.5 3.0 2540.3037339 4.23176312447
75 109.285419645 191.441585509 -1 90.0 120.0 3.0 6.5 90.0 120.0 False 4.0 180.0 120.0 1.0 3.0 -1564.71458035 4.65875387192
76 127.985234785 349.637709941 1 90.0 120.0 3.0 6.5 90.0 120.0 False 4.0 180.0 120.0 1.25 3.0 1819.23523479 3.75939893723
77 19.137661152 18.5997114815 -1 90.0 120.0 3.0 6.5 90.0 120.0 False 4.0 180.0 120.0 2.75 3.0 -5005.11233885 5.0837430954
78 0.0835279736669 192.000801833 1 90.0 120.0 3.0 6.5 90.0 120.0 False 4.0 180.0 120.0 2.0 3.0 3636.08352797 5.05840992928
79 9.10347413956 86.6454878393 -1 90.0 120.0 3.0 6.5 90.0 120.0 False 4.0 180.0 120.0 0.75 3.0 -1163.14652586 4.34396195412
80 191.73101667 63.5602744793 1 90.0 120.0 3.0 6.5 90.0 120.0 False 4.0 180.0 120.0 1.75 3.0 3010.98101667 4.48245596886
81 334.910093644 324.054145216 1 90.0 120.0 3.0 6.5 90.0 120.0 True 4.0 180.0 120.0 1.25 3.0 2997.41009364 5.92549014091
82 125.819207364 289.189954054 1 90.0 120.0 3.0 6.5 90.0 120.0 True 4.0 180.0 120.0 2.5 3.0 4475.81920736 4.84163689613
83 344.235991059 330.569941526 -1 90.0 120.0 3.0 6.5 90.0 120.0 False 4.0 180.0 120.0 2.5 3.0 -3615.76400894 4.4082839489
84 319.103457156 48.1670144028 -1 90.0 120.0 3.0 6.5 90.0 120.0 False 4.0 180.0 120.0 1.5 3.0 -2142.39654284 4.56068277359
85 176.703170276 52.6207750115 1 90.0 120.0 3.0 6.5 90.0 120.0 True 4.0 180.0 120.0 0.75 3.0 1281.45317028 4.09861707687
86 146.084436732 212.108520994 -1 90.0 120.0 3.0 6.5 90.0 120.0 False 4.0 180.0 120.0 1.75 3.0 -2274.16556327 3.84917902946
87 65.7104605195 62.3256475763 1 90.0 120.0 3.0 6.5 90.0 120.0 True 4.0 180.0 120.0 2.25 3.0 3710.71046052 4.50831484795
88 220.618537665 108.676632817 1 90.0 120.0 3.0 6.5 90.0 120.0 True 4.0 180.0 120.0 1.0 3.0 1885.61853766 4.63210201263
89 40.6178084438 134.54091097 1 90.0 120.0 3.0 6.5 90.0 120.0 False 4.0 180.0 120.0 2.5 3.0 4758.11780844 5.2498998642
90 154.398993054 280.330942117 -1 90.0 120.0 3.0 6.5 90.0 120.0 False 4.0 180.0 120.0 2.0 3.0 -3721.60100695 5.39120316505
91 163.62681834 178.751515615 1 90.0 120.0 3.0 6.5 90.0 120.0 False 4.0 180.0 120.0 2.75 3.0 3744.12681834 3.6242377758
92 235.442686884 160.772679141 -1 90.0 120.0 3.0 6.5 90.0 120.0 True 4.0 180.0 120.0 2.0 3.0 -2896.55731312 4.3507130146
93 266.409619455 301.61568761 1 90.0 120.0 3.0 6.5 90.0 120.0 False 4.0 180.0 120.0 1.0 3.0 1544.40961945 3.55731582642
94 351.191069663 267.007730048 -1 90.0 120.0 3.0 6.5 90.0 120.0 True 4.0 180.0 120.0 2.75 3.0 -3468.55893034 3.86589288712
95 123.711336405 330.738207658 -1 90.0 120.0 3.0 6.5 90.0 120.0 False 4.0 180.0 120.0 2.25 3.0 -3953.2886636 5.04147410393
96 327.952284977 212.966835565 -1 90.0 120.0 3.0 6.5 90.0 120.0 False 4.0 180.0 120.0 1.25 3.0 -1989.54771502 5.15769195557
97 245.213521277 121.222881327 -1 90.0 120.0 3.0 6.5 90.0 120.0 True 4.0 180.0 120.0 1.75 3.0 -3209.28647872 5.48494696617
98 281.110720625 88.0999253073 1 90.0 120.0 3.0 6.5 90.0 120.0 True 4.0 180.0 120.0 1.5 3.0 2792.11072062 4.65798187256
99 84.8948481637 235.997662126 1 90.0 120.0 3.0 6.5 90.0 120.0 True 4.0 180.0 120.0 2.75 3.0 4193.39484816 4.15676689148
100 56.9679232052 289.789692986 -1 90.0 120.0 3.0 6.5 90.0 120.0 True 4.0 180.0 120.0 1.5 3.0 -1896.03207679 3.62408590317
101 301.422177415 198.829863421 1 90.0 120.0 3.0 6.5 90.0 120.0 False 4.0 180.0 120.0 2.25 3.0 3710.17217741 4.21465182304
102 280.462078298 176.15124705 -1 90.0 120.0 3.0 6.5 90.0 120.0 True 4.0 180.0 120.0 2.25 3.0 -4309.5379217 5.6688079834
103 298.512753106 47.757528548 -1 90.0 120.0 3.0 6.5 90.0 120.0 True 4.0 180.0 120.0 2.5 3.0 -3158.98724689 3.84884905815
104 357.31333298 235.698436198 1 90.0 120.0 3.0 6.5 90.0 120.0 True 4.0 180.0 120.0 1.75 3.0 3848.56333298 5.54866790771
105 165.581269013 148.727726988 -1 90.0 120.0 3.0 6.5 90.0 120.0 True 4.0 180.0 120.0 1.0 3.0 -1448.41873099 4.48426198959
106 184.075993814 275.619191489 1 90.0 120.0 3.0 6.5 90.0 120.0 False 4.0 180.0 120.0 0.75 3.0 1327.07599381 4.24078798294
107 149.972395046 29.4350633461 -1 90.0 120.0 3.0 6.5 90.0 120.0 True 4.0 180.0 120.0 0.75 3.0 -846.777604954 3.69206309319
108 185.523503832 86.852154833 1 90.0 120.0 3.0 6.5 90.0 120.0 True 4.0 180.0 120.0 2.0 3.0 3431.52350383 4.51581597328
