trial angleIni angleLandmark direction durationRampingIni durationFinal sizeLandmark radiusLandmark durationRampingFinal durationIni same radius duration durationRampingLand freq size response responseTime
1 3.80636648282 132.359128916 1 90.0 120.0 3.0 6.5 90.0 120.0 True 4.0 180.0 120.0 2.5 3.0 2951.30636648 3.28552603722
2 351.467066649 18.167839245 -1 90.0 120.0 3.0 6.5 90.0 120.0 False 4.0 180.0 120.0 2.25 3.0 -2726.53293335 3.80784201622
3 291.993232264 258.3707027 1 90.0 120.0 3.0 6.5 90.0 120.0 True 4.0 180.0 120.0 1.5 3.0 2303.49323226 3.73171114922
4 5.61252276841 102.020923706 -1 90.0 120.0 3.0 6.5 90.0 120.0 False 4.0 180.0 120.0 1.0 3.0 -1185.38747723 3.3166949749
5 130.755501644 233.248799418 1 90.0 120.0 3.0 6.5 90.0 120.0 False 4.0 180.0 120.0 1.25 3.0 1675.75550164 3.43507003784
6 241.067559331 92.4648874661 -1 90.0 120.0 3.0 6.5 90.0 120.0 True 4.0 180.0 120.0 2.75 3.0 -2423.68244067 2.69951510429
7 228.220897587 309.258108576 -1 90.0 120.0 3.0 6.5 90.0 120.0 True 4.0 180.0 120.0 2.0 3.0 -3341.77910241 4.96617507935
8 219.987426676 17.3631080773 1 90.0 120.0 3.0 6.5 90.0 120.0 True 4.0 180.0 120.0 3.0 3.0 3729.98742668 3.25713205338
9 174.644435329 6.21201817206 1 90.0 120.0 3.0 6.5 90.0 120.0 False 4.0 180.0 120.0 1.0 3.0 1416.64443533 3.45880103111
10 152.987073185 238.297003243 1 90.0 120.0 3.0 6.5 90.0 120.0 True 4.0 180.0 120.0 3.5 3.0 3502.48707318 2.66588306427
11 335.699001641 262.947921224 1 90.0 120.0 3.0 6.5 90.0 120.0 False 4.0 180.0 120.0 2.75 3.0 3693.44900164 3.39387106895
12 288.375826373 342.986410257 1 90.0 120.0 3.0 6.5 90.0 120.0 False 4.0 180.0 120.0 0.75 3.0 1053.37582637 2.8411591053
13 16.4630089999 148.251229039 1 90.0 120.0 3.0 6.5 90.0 120.0 False 4.0 180.0 120.0 2.0 3.0 2998.463009 4.14864802361
14 252.811074443 193.13360421 -1 90.0 120.0 3.0 6.5 90.0 120.0 False 4.0 180.0 120.0 0.75 3.0 -498.688925557 2.78526496887
15 317.808850556 219.934246225 -1 90.0 120.0 3.0 6.5 90.0 120.0 False 4.0 180.0 120.0 3.0 3.0 -3480.19114944 3.52542901039
16 118.252692471 16.3407580957 -1 90.0 120.0 3.0 6.5 90.0 120.0 False 4.0 180.0 120.0 3.25 3.0 -3255.24730753 2.89100813866
17 264.062583684 132.371361239 1 90.0 120.0 3.0 6.5 90.0 120.0 True 4.0 180.0 120.0 2.0 3.0 2628.06258368 3.29181003571
18 337.98473496 345.114770484 1 90.0 120.0 3.0 6.5 90.0 120.0 False 4.0 180.0 120.0 2.25 3.0 3172.98473496 3.50776290894
19 219.973340661 344.598409544 -1 90.0 120.0 3.0 6.5 90.0 120.0 False 4.0 180.0 120.0 1.5 3.0 -1796.02665934 3.74165916443
20 80.5581486893 23.7796900683 -1 90.0 120.0 3.0 6.5 90.0 120.0 True 4.0 180.0 120.0 2.5 3.0 -2326.94185131 2.68248701096
21 214.23160233 247.525304737 -1 90.0 120.0 3.0 6.5 90.0 120.0 True 4.0 180.0 120.0 2.25 3.0 -3113.51839767 4.11582398415
22 51.1674183331 0.664666914704 1 90.0 120.0 3.0 6.5 90.0 120.0 True 4.0 180.0 120.0 1.75 3.0 2492.41741833 3.88242101669
23 333.269110426 213.510113414 1 90.0 120.0 3.0 6.5 90.0 120.0 True 4.0 180.0 120.0 2.75 3.0 4994.51911043 4.71492910385
24 334.56195309 32.2834307154 1 90.0 120.0 3.0 6.5 90.0 120.0 False 4.0 180.0 120.0 3.0 3.0 4573.56195309 3.93217110634
25 65.7481757415 23.4026706336 1 90.0 120.0 3.0 6.5 90.0 120.0 True 4.0 180.0 120.0 0.75 3.0 875.748175742 3.00148105621
26 174.732431833 38.5882259405 -1 90.0 120.0 3.0 6.5 90.0 120.0 True 4.0 180.0 120.0 3.25 3.0 -5012.26756817 4.44000911713
27 63.4101644445 108.041547489 -1 90.0 120.0 3.0 6.5 90.0 120.0 False 4.0 180.0 120.0 3.5 3.0 -5060.58983556 4.07455992699
28 244.463925746 275.350514325 -1 90.0 120.0 3.0 6.5 90.0 120.0 False 4.0 180.0 120.0 2.75 3.0 -4078.53607425 4.36884593964
29 268.462218376 74.2638935402 -1 90.0 120.0 3.0 6.5 90.0 120.0 True 4.0 180.0 120.0 1.25 3.0 -1550.28778162 4.05019307137
30 137.873738641 233.764857662 -1 90.0 120.0 3.0 6.5 90.0 120.0 False 4.0 180.0 120.0 1.25 3.0 -1448.37626136 3.53254890442
31 280.924903785 194.976091879 1 90.0 120.0 3.0 6.5 90.0 120.0 True 4.0 180.0 120.0 1.0 3.0 1783.92490378 4.18225193024
32 227.45593685 141.310647417 -1 90.0 120.0 3.0 6.5 90.0 120.0 False 4.0 180.0 120.0 2.5 3.0 -3215.04406315 3.83269691467
33 162.968066067 131.252669125 1 90.0 120.0 3.0 6.5 90.0 120.0 False 4.0 180.0 120.0 1.5 3.0 3002.46806607 5.26582694054
34 124.229373798 71.8520689147 -1 90.0 120.0 3.0 6.5 90.0 120.0 True 4.0 180.0 120.0 3.5 3.0 -4905.2706262 3.99925088882
35 356.305444639 168.232636999 -1 90.0 120.0 3.0 6.5 90.0 120.0 True 4.0 180.0 120.0 1.75 3.0 -3308.19455536 5.82448601723
36 85.1297437467 141.527274123 1 90.0 120.0 3.0 6.5 90.0 120.0 False 4.0 180.0 120.0 1.75 3.0 2599.87974375 3.99849104881
37 106.662407272 193.333209941 1 90.0 120.0 3.0 6.5 90.0 120.0 False 4.0 180.0 120.0 3.25 3.0 4591.66240727 3.84214711189
38 213.234637621 128.979346746 -1 90.0 120.0 3.0 6.5 90.0 120.0 True 4.0 180.0 120.0 0.75 3.0 -407.765362379 2.30721783638
39 54.5275761051 181.295586569 1 90.0 120.0 3.0 6.5 90.0 120.0 True 4.0 180.0 120.0 3.25 3.0 3915.52757611 3.30657291412
40 150.057784084 316.89281056 1 90.0 120.0 3.0 6.5 90.0 120.0 False 4.0 180.0 120.0 3.5 3.0 4161.05778408 3.19070601463
41 39.282844034 123.385308755 -1 90.0 120.0 3.0 6.5 90.0 120.0 True 4.0 180.0 120.0 1.0 3.0 -1877.71715597 5.32651805878
42 47.3838287191 315.460959219 1 90.0 120.0 3.0 6.5 90.0 120.0 True 4.0 180.0 120.0 2.25 3.0 2956.63382872 3.59958386421
43 309.904096493 228.986820577 -1 90.0 120.0 3.0 6.5 90.0 120.0 False 4.0 180.0 120.0 1.75 3.0 -2210.09590351 4.00806212425
44 20.0900072226 359.513449849 -1 90.0 120.0 3.0 6.5 90.0 120.0 False 4.0 180.0 120.0 2.0 3.0 -2631.90999278 3.69020915031
45 160.184941412 149.372931914 1 90.0 120.0 3.0 6.5 90.0 120.0 False 4.0 180.0 120.0 2.5 3.0 3550.18494141 3.77446699142
46 328.347683413 10.8246021511 -1 90.0 120.0 3.0 6.5 90.0 120.0 True 4.0 180.0 120.0 3.0 3.0 -4054.65231659 4.06600403786
47 212.380102546 202.992284925 1 90.0 120.0 3.0 6.5 90.0 120.0 True 4.0 180.0 120.0 1.25 3.0 1922.38010255 3.80856394768
48 48.6867635857 315.105935662 -1 90.0 120.0 3.0 6.5 90.0 120.0 True 4.0 180.0 120.0 1.5 3.0 -2498.31323641 4.71846699715
49 63.1940425664 230.288064313 -1 90.0 120.0 3.0 6.5 90.0 120.0 False 4.0 180.0 120.0 1.25 3.0 -2100.55595743 4.81652808189
50 262.758275445 206.036708746 1 90.0 120.0 3.0 6.5 90.0 120.0 False 4.0 180.0 120.0 2.5 3.0 3412.75827544 3.50186014175
51 163.201220776 208.803358463 -1 90.0 120.0 3.0 6.5 90.0 120.0 False 4.0 180.0 120.0 0.75 3.0 -673.798779224 3.10026693344
52 84.3709690484 163.919867391 -1 90.0 120.0 3.0 6.5 90.0 120.0 False 4.0 180.0 120.0 1.75 3.0 -2272.87903095 3.74943900108
53 40.7589285324 192.784063361 1 90.0 120.0 3.0 6.5 90.0 120.0 True 4.0 180.0 120.0 2.25 3.0 3692.50892853 4.5155620575
54 287.799503715 89.9597184401 1 90.0 120.0 3.0 6.5 90.0 120.0 False 4.0 180.0 120.0 3.0 3.0 4040.79950371 3.47649002075
55 345.625804329 171.141412308 -1 90.0 120.0 3.0 6.5 90.0 120.0 False 4.0 180.0 120.0 2.0 3.0 -2804.37419567 4.38216900826
56 318.08825546 317.975003059 1 90.0 120.0 3.0 6.5 90.0 120.0 True 4.0 180.0 120.0 2.0 3.0 3660.08825546 4.64441394806
57 44.3086731196 89.0894080264 -1 90.0 120.0 3.0 6.5 90.0 120.0 False 4.0 180.0 120.0 1.0 3.0 -1152.69132688 3.33255410194
58 198.702002032 123.406232349 1 90.0 120.0 3.0 6.5 90.0 120.0 False 4.0 180.0 120.0 1.25 3.0 2459.95200203 5.02670407295
59 356.192326259 9.03345041504 -1 90.0 120.0 3.0 6.5 90.0 120.0 True 4.0 180.0 120.0 1.75 3.0 -1759.55767374 3.36657595634
60 59.6329110008 293.580881141 1 90.0 120.0 3.0 6.5 90.0 120.0 False 4.0 180.0 120.0 1.5 3.0 2111.632911 3.80798506737
61 107.188525866 171.63250667 -1 90.0 120.0 3.0 6.5 90.0 120.0 False 4.0 180.0 120.0 3.25 3.0 -3471.06147413 3.05870485306
62 79.5861247896 330.632387091 1 90.0 120.0 3.0 6.5 90.0 120.0 True 4.0 180.0 120.0 3.25 3.0 4047.83612479 3.39939117432
63 336.341225524 178.204462382 -1 90.0 120.0 3.0 6.5 90.0 120.0 True 4.0 180.0 120.0 2.0 3.0 -2681.65877448 4.20037412643
64 233.235012801 76.0481145027 1 90.0 120.0 3.0 6.5 90.0 120.0 True 4.0 180.0 120.0 3.5 3.0 3425.2350128 2.54199695587
65 170.901971719 173.798833698 -1 90.0 120.0 3.0 6.5 90.0 120.0 True 4.0 180.0 120.0 3.25 3.0 -3066.09802828 2.77378511429
66 292.330983626 330.160866589 -1 90.0 120.0 3.0 6.5 90.0 120.0 True 4.0 180.0 120.0 1.5 3.0 -1908.16901637 4.082695961
67 258.684018411 26.1785504615 1 90.0 120.0 3.0 6.5 90.0 120.0 True 4.0 180.0 120.0 1.75 3.0 2957.18401841 4.28951501846
68 217.630185345 106.684789864 1 90.0 120.0 3.0 6.5 90.0 120.0 True 4.0 180.0 120.0 1.5 3.0 2148.13018534 3.58259391785
69 120.827796587 352.796104139 1 90.0 120.0 3.0 6.5 90.0 120.0 True 4.0 180.0 120.0 1.0 3.0 1077.82779659 2.66497993469
70 223.439744116 307.888319109 -1 90.0 120.0 3.0 6.5 90.0 120.0 False 4.0 180.0 120.0 2.5 3.0 -2461.56025588 2.99135804176
71 328.156712414 47.5818536997 -1 90.0 120.0 3.0 6.5 90.0 120.0 False 4.0 180.0 120.0 2.25 3.0 -3067.09328759 4.2002530098
72 83.6710772367 45.0704962313 1 90.0 120.0 3.0 6.5 90.0 120.0 False 4.0 180.0 120.0 2.75 3.0 3342.42107724 3.29850006104
73 321.018253738 175.62655666 1 90.0 120.0 3.0 6.5 90.0 120.0 False 4.0 180.0 120.0 3.5 3.0 3618.01825374 2.6253259182
74 105.63461511 330.35173431 -1 90.0 120.0 3.0 6.5 90.0 120.0 True 4.0 180.0 120.0 3.0 3.0 -2720.36538489 2.62400913239
75 0.463582539929 352.759409928 1 90.0 120.0 3.0 6.5 90.0 120.0 False 4.0 180.0 120.0 2.0 3.0 2964.46358254 4.12544703484
76 213.371271486 151.98853245 -1 90.0 120.0 3.0 6.5 90.0 120.0 True 4.0 180.0 120.0 2.5 3.0 -2314.12872851 2.80955195427
77 20.6984720674 206.969854232 1 90.0 120.0 3.0 6.5 90.0 120.0 False 4.0 180.0 120.0 3.25 3.0 3335.69847207 2.84077501297
78 31.8149577689 137.137028629 -1 90.0 120.0 3.0 6.5 90.0 120.0 True 4.0 180.0 120.0 1.0 3.0 -1126.18504223 3.22475099564
79 346.71480387 204.180297155 1 90.0 120.0 3.0 6.5 90.0 120.0 True 4.0 180.0 120.0 3.0 3.0 3397.71480387 2.83284783363
80 178.461435363 185.862278893 1 90.0 120.0 3.0 6.5 90.0 120.0 True 4.0 180.0 120.0 1.25 3.0 1614.71143536 3.19249486923
81 146.833061781 126.145653075 1 90.0 120.0 3.0 6.5 90.0 120.0 True 4.0 180.0 120.0 2.5 3.0 3641.83306178 3.89139199257
82 204.143073277 239.006391974 1 90.0 120.0 3.0 6.5 90.0 120.0 False 4.0 180.0 120.0 1.0 3.0 1482.14307328 3.55874705315
83 239.865097491 154.497397052 -1 90.0 120.0 3.0 6.5 90.0 120.0 True 4.0 180.0 120.0 0.75 3.0 -396.884902509 2.35909295082
84 31.7973694339 63.5405807811 -1 90.0 120.0 3.0 6.5 90.0 120.0 True 4.0 180.0 120.0 2.25 3.0 -2411.70263057 3.02467989922
85 38.4915115189 150.404598759 1 90.0 120.0 3.0 6.5 90.0 120.0 True 4.0 180.0 120.0 0.75 3.0 830.491511519 2.94106197357
86 250.551600015 5.9966237676 -1 90.0 120.0 3.0 6.5 90.0 120.0 False 4.0 180.0 120.0 3.5 3.0 -5776.44839998 4.79081392288
87 31.2266975949 155.50740657 -1 90.0 120.0 3.0 6.5 90.0 120.0 False 4.0 180.0 120.0 2.75 3.0 -4102.02330241 4.18217015266
88 310.445886188 286.91878492 -1 90.0 120.0 3.0 6.5 90.0 120.0 True 4.0 180.0 120.0 2.75 3.0 -4078.55411381 4.44074296951
89 260.091364853 25.8166145752 1 90.0 120.0 3.0 6.5 90.0 120.0 False 4.0 180.0 120.0 1.75 3.0 3242.09136485 4.73562884331
90 13.6850769512 340.930681614 1 90.0 120.0 3.0 6.5 90.0 120.0 True 4.0 180.0 120.0 2.75 3.0 4047.93507695 4.08238792419
91 297.680049289 317.24687331 -1 90.0 120.0 3.0 6.5 90.0 120.0 True 4.0 180.0 120.0 3.5 3.0 -5046.81995071 4.25009012222
92 51.19936269 136.372820605 1 90.0 120.0 3.0 6.5 90.0 120.0 False 4.0 180.0 120.0 0.75 3.0 681.19936269 2.33395290375
93 245.563877708 255.302777606 -1 90.0 120.0 3.0 6.5 90.0 120.0 False 4.0 180.0 120.0 3.0 3.0 -3948.43612229 3.89201903343
94 2.9870756894 348.248437536 -1 90.0 120.0 3.0 6.5 90.0 120.0 True 4.0 180.0 120.0 1.25 3.0 -2003.26292431 4.46572709084
95 60.4734651192 1.91742899332 -1 90.0 120.0 3.0 6.5 90.0 120.0 False 4.0 180.0 120.0 1.5 3.0 -1964.52653488 3.75834989548
96 210.993220886 193.981772046 1 90.0 120.0 3.0 6.5 90.0 120.0 False 4.0 180.0 120.0 2.25 3.0 3633.24322089 4.23252511024
97 325.976419403 56.3617167102 -1 90.0 120.0 3.0 6.5 90.0 120.0 True 4.0 180.0 120.0 0.75 3.0 -310.773580597 2.36557793617
98 112.498934863 87.1492547028 1 90.0 120.0 3.0 6.5 90.0 120.0 True 4.0 180.0 120.0 2.0 3.0 3454.49893486 4.65038394928
99 124.437198202 6.95364843025 -1 90.0 120.0 3.0 6.5 90.0 120.0 False 4.0 180.0 120.0 3.0 3.0 -4258.5628018 4.06494498253
100 311.529396492 321.714888403 1 90.0 120.0 3.0 6.5 90.0 120.0 True 4.0 180.0 120.0 3.5 3.0 4648.02939649 3.44900989532
101 342.708289676 350.515720059 1 90.0 120.0 3.0 6.5 90.0 120.0 True 4.0 180.0 120.0 3.25 3.0 4466.95828968 3.53174996376
102 237.774906158 292.941772594 1 90.0 120.0 3.0 6.5 90.0 120.0 False 4.0 180.0 120.0 1.0 3.0 1329.77490616 3.04097008705
103 265.549607907 233.679692451 1 90.0 120.0 3.0 6.5 90.0 120.0 True 4.0 180.0 120.0 2.5 3.0 3678.04960791 3.79941391945
104 165.28659011 262.292143271 -1 90.0 120.0 3.0 6.5 90.0 120.0 False 4.0 180.0 120.0 1.75 3.0 -2585.71340989 4.37419104576
105 294.726689057 180.427890506 -1 90.0 120.0 3.0 6.5 90.0 120.0 True 4.0 180.0 120.0 2.5 3.0 -3005.27331094 3.66915798187
106 158.544072863 315.750649124 1 90.0 120.0 3.0 6.5 90.0 120.0 False 4.0 180.0 120.0 1.5 3.0 2458.04407286 4.26056885719
107 221.765654154 314.881275567 -1 90.0 120.0 3.0 6.5 90.0 120.0 True 4.0 180.0 120.0 1.5 3.0 -2158.73434585 4.41689801216
108 148.378131866 97.894991754 1 90.0 120.0 3.0 6.5 90.0 120.0 False 4.0 180.0 120.0 2.0 3.0 3394.37813187 4.50898885727
109 113.279998301 199.881359438 -1 90.0 120.0 3.0 6.5 90.0 120.0 False 4.0 180.0 120.0 1.5 3.0 -3009.7200017 5.79169607162
110 350.391385878 127.86091184 1 90.0 120.0 3.0 6.5 90.0 120.0 True 4.0 180.0 120.0 2.75 3.0 3988.64138588 3.6763548851
111 164.701664711 5.2662310545 -1 90.0 120.0 3.0 6.5 90.0 120.0 False 4.0 180.0 120.0 2.75 3.0 -3349.79833529 3.55737495422
112 334.446601465 328.895171752 1 90.0 120.0 3.0 6.5 90.0 120.0 False 4.0 180.0 120.0 3.5 3.0 3925.44660146 2.85851383209
113 233.600331601 79.1127213477 1 90.0 120.0 3.0 6.5 90.0 120.0 False 4.0 180.0 120.0 3.25 3.0 3782.6003316 3.03484392166
114 68.7186625408 282.668130443 1 90.0 120.0 3.0 6.5 90.0 120.0 False 4.0 180.0 120.0 2.5 3.0 3458.71866254 3.77380418777
115 264.274302468 321.162001422 -1 90.0 120.0 3.0 6.5 90.0 120.0 False 4.0 180.0 120.0 1.25 3.0 -1438.22569753 3.79172086716
116 297.676400575 130.278435298 -1 90.0 120.0 3.0 6.5 90.0 120.0 True 4.0 180.0 120.0 2.25 3.0 -2908.57359942 3.96579003334
117 99.6154814201 100.14879476 1 90.0 120.0 3.0 6.5 90.0 120.0 False 4.0 180.0 120.0 2.25 3.0 2671.36548142 3.18242907524
118 287.138660938 176.83789399 1 90.0 120.0 3.0 6.5 90.0 120.0 True 4.0 180.0 120.0 1.5 3.0 3090.63866094 5.20060300827
119 294.150297758 104.475923608 1 90.0 120.0 3.0 6.5 90.0 120.0 False 4.0 180.0 120.0 3.0 3.0 4524.15029776 3.92495012283
120 352.323295582 202.454100294 1 90.0 120.0 3.0 6.5 90.0 120.0 True 4.0 180.0 120.0 1.75 3.0 3728.07329558 5.36604499817
121 274.722755281 158.267732586 -1 90.0 120.0 3.0 6.5 90.0 120.0 False 4.0 180.0 120.0 2.5 3.0 -3122.77724472 3.78201913834
122 13.5097631587 74.98119031 1 90.0 120.0 3.0 6.5 90.0 120.0 True 4.0 180.0 120.0 1.0 3.0 1144.50976316 3.14859199524
123 32.4423844279 85.782047883 -1 90.0 120.0 3.0 6.5 90.0 120.0 True 4.0 180.0 120.0 1.75 3.0 -3059.80761557 4.91580295563
124 182.710846405 47.3677359296 -1 90.0 120.0 3.0 6.5 90.0 120.0 False 4.0 180.0 120.0 2.0 3.0 -3417.2891536 5.00138401985
125 85.1925128612 47.461478014 1 90.0 120.0 3.0 6.5 90.0 120.0 False 4.0 180.0 120.0 0.75 3.0 771.442512861 2.55030417442
126 154.958634536 47.5903790675 1 90.0 120.0 3.0 6.5 90.0 120.0 True 4.0 180.0 120.0 2.25 3.0 2746.95863454 3.20189785957
127 290.73770885 141.138893148 -1 90.0 120.0 3.0 6.5 90.0 120.0 False 4.0 180.0 120.0 3.25 3.0 -3082.76229115 2.89071583748
128 79.7505949413 283.832964434 -1 90.0 120.0 3.0 6.5 90.0 120.0 True 4.0 180.0 120.0 3.25 3.0 -4229.74940506 3.69112801552
129 28.9689855043 327.158685914 1 90.0 120.0 3.0 6.5 90.0 120.0 True 4.0 180.0 120.0 1.25 3.0 1956.4689855 4.29149484634
130 28.1005810123 339.144126922 -1 90.0 120.0 3.0 6.5 90.0 120.0 False 4.0 180.0 120.0 3.5 3.0 -3604.89941899 2.89134502411
131 304.334773106 184.837201001 -1 90.0 120.0 3.0 6.5 90.0 120.0 True 4.0 180.0 120.0 2.0 3.0 -2815.66522689 4.34011292458
132 51.2918034727 250.269610388 -1 90.0 120.0 3.0 6.5 90.0 120.0 True 4.0 180.0 120.0 3.5 3.0 -3655.20819653 2.95043301582
133 125.531899141 248.033172656 -1 90.0 120.0 3.0 6.5 90.0 120.0 True 4.0 180.0 120.0 2.75 3.0 -4395.46810086 4.56827306747
134 13.8752518277 161.08427881 1 90.0 120.0 3.0 6.5 90.0 120.0 False 4.0 180.0 120.0 2.75 3.0 4444.12525183 4.48216319084
135 118.29743246 27.6144070365 -1 90.0 120.0 3.0 6.5 90.0 120.0 True 4.0 180.0 120.0 1.0 3.0 -1414.70256754 4.26547193527
136 221.886707036 33.1975412889 1 90.0 120.0 3.0 6.5 90.0 120.0 False 4.0 180.0 120.0 1.25 3.0 1883.13670704 3.69867801666
137 108.176326355 141.983849306 -1 90.0 120.0 3.0 6.5 90.0 120.0 True 4.0 180.0 120.0 1.25 3.0 -1706.82367364 4.0410630703
138 286.043577572 265.689584817 -1 90.0 120.0 3.0 6.5 90.0 120.0 False 4.0 180.0 120.0 0.75 3.0 -832.206422428 4.14945697784
139 100.938278249 297.188104478 -1 90.0 120.0 3.0 6.5 90.0 120.0 False 4.0 180.0 120.0 2.25 3.0 -3118.81172175 3.98241305351
140 228.478920468 339.068852886 -1 90.0 120.0 3.0 6.5 90.0 120.0 True 4.0 180.0 120.0 3.0 3.0 -3794.52107953 3.73336696625
141 87.4855126646 156.424690436 -1 90.0 120.0 3.0 6.5 90.0 120.0 False 4.0 180.0 120.0 1.0 3.0 -1445.51448734 4.26589584351
142 179.205761791 23.7414282843 1 90.0 120.0 3.0 6.5 90.0 120.0 True 4.0 180.0 120.0 0.75 3.0 1268.20576179 4.04178595543
143 85.565329862 138.276116498 1 90.0 120.0 3.0 6.5 90.0 120.0 False 4.0 180.0 120.0 1.75 3.0 2647.56532986 4.07370901108
144 129.3222046 160.661228865 1 90.0 120.0 3.0 6.5 90.0 120.0 True 4.0 180.0 120.0 3.0 3.0 3045.3222046 2.7086391449
