trial angleIni angleLandmark direction durationRampingIni durationFinal sizeLandmark radiusLandmark durationRampingFinal durationIni same radius duration durationRampingLand freq size response responseTime
1 195.511552146 39.6917102164 1 90.0 120.0 3.0 6.5 90.0 120.0 True 4.0 180.0 120.0 0.75 3.0 1122.51155215 3.44159817696
2 60.4357316364 54.660089034 1 90.0 120.0 3.0 6.5 90.0 120.0 True 4.0 180.0 120.0 2.5 3.0 3127.93573164 3.41598916054
3 58.9683061656 3.87351467553 -1 90.0 120.0 3.0 6.5 90.0 120.0 True 4.0 180.0 120.0 3.5 3.0 -3374.53169383 2.73265719414
4 214.631982451 126.663511858 -1 90.0 120.0 3.0 6.5 90.0 120.0 True 4.0 180.0 120.0 2.75 3.0 -4108.36801755 4.3740940094
5 296.860774141 33.0737927327 1 90.0 120.0 3.0 6.5 90.0 120.0 False 4.0 180.0 120.0 2.0 3.0 3908.86077414 5.01942896843
6 167.983982045 179.831732344 -1 90.0 120.0 3.0 6.5 90.0 120.0 False 4.0 180.0 120.0 1.0 3.0 -1248.01601796 3.94091510773
7 331.365959128 143.171340268 1 90.0 120.0 3.0 6.5 90.0 120.0 True 4.0 180.0 120.0 2.0 3.0 3889.36595913 4.95032501221
8 295.105962194 61.7732592542 -1 90.0 120.0 3.0 6.5 90.0 120.0 False 4.0 180.0 120.0 0.75 3.0 -463.144037806 2.81640100479
9 154.982567182 139.463680915 -1 90.0 120.0 3.0 6.5 90.0 120.0 False 4.0 180.0 120.0 3.0 3.0 -3103.01743282 3.02520394325
10 351.446110709 314.945642732 -1 90.0 120.0 3.0 6.5 90.0 120.0 False 4.0 180.0 120.0 1.25 3.0 -1122.30388929 3.28271603584
11 212.187068916 25.2382697091 -1 90.0 120.0 3.0 6.5 90.0 120.0 True 4.0 180.0 120.0 2.5 3.0 -2420.31293108 2.93321490288
12 175.905101133 96.6494463141 -1 90.0 120.0 3.0 6.5 90.0 120.0 True 4.0 180.0 120.0 1.75 3.0 -2632.84489887 4.46005511284
13 193.798707285 65.4717389328 1 90.0 120.0 3.0 6.5 90.0 120.0 True 4.0 180.0 120.0 2.75 3.0 3130.79870728 2.97475600243
14 55.2920369035 17.3988243147 -1 90.0 120.0 3.0 6.5 90.0 120.0 False 4.0 180.0 120.0 3.25 3.0 -3386.4579631 2.94826602936
15 188.770808032 96.0230519695 -1 90.0 120.0 3.0 6.5 90.0 120.0 True 4.0 180.0 120.0 0.75 3.0 -434.479191968 2.31532502174
16 186.728973297 359.626464103 -1 90.0 120.0 3.0 6.5 90.0 120.0 True 4.0 180.0 120.0 3.0 3.0 -2873.2710267 2.83460211754
17 45.0888427226 344.404958403 -1 90.0 120.0 3.0 6.5 90.0 120.0 False 4.0 180.0 120.0 2.5 3.0 None None
18 212.371193041 343.094355015 -1 90.0 120.0 3.0 6.5 90.0 120.0 True 4.0 180.0 120.0 1.5 3.0 189.871193041 0.0483889579773
19 226.662411465 289.790836812 1 90.0 120.0 3.0 6.5 90.0 120.0 False 4.0 180.0 120.0 1.0 3.0 1291.66241147 2.96712088585
20 79.8001264098 245.137111227 -1 90.0 120.0 3.0 6.5 90.0 120.0 False 4.0 180.0 120.0 1.75 3.0 -3253.94987359 5.29951190948
21 65.9942917809 329.922855317 -1 90.0 120.0 3.0 6.5 90.0 120.0 True 4.0 180.0 120.0 1.25 3.0 -1827.75570822 4.20858597755
22 6.56256084147 114.727621737 1 90.0 120.0 3.0 6.5 90.0 120.0 False 4.0 180.0 120.0 0.75 3.0 841.312560841 3.10019922256
23 194.213655297 53.1434689846 1 90.0 120.0 3.0 6.5 90.0 120.0 False 4.0 180.0 120.0 2.5 3.0 3794.2136553 4.0010330677
24 340.757635994 170.410337689 -1 90.0 120.0 3.0 6.5 90.0 120.0 False 4.0 180.0 120.0 2.75 3.0 -3124.24236401 3.50720596313
25 279.768714828 89.7819048382 1 90.0 120.0 3.0 6.5 90.0 120.0 False 4.0 180.0 120.0 1.75 3.0 2847.01871483 4.08264398575
26 284.486643573 50.170726849 1 90.0 120.0 3.0 6.5 90.0 120.0 True 4.0 180.0 120.0 1.75 3.0 2484.23664357 3.4989130497
27 138.816458776 279.510026395 1 90.0 120.0 3.0 6.5 90.0 120.0 False 4.0 180.0 120.0 3.25 3.0 3249.06645878 2.66554403305
28 93.245171639 56.3799329238 -1 90.0 120.0 3.0 6.5 90.0 120.0 False 4.0 180.0 120.0 1.5 3.0 -2305.25482836 4.44956898689
29 175.7763284 97.1883930692 1 90.0 120.0 3.0 6.5 90.0 120.0 False 4.0 180.0 120.0 2.75 3.0 3170.5263284 3.03282308578
30 229.060725909 357.424911305 1 90.0 120.0 3.0 6.5 90.0 120.0 True 4.0 180.0 120.0 3.25 3.0 3378.31072591 2.69916987419
31 22.4099409993 38.51435645 -1 90.0 120.0 3.0 6.5 90.0 120.0 False 4.0 180.0 120.0 2.25 3.0 -3096.090059 3.85690498352
32 222.537491959 219.074421559 -1 90.0 120.0 3.0 6.5 90.0 120.0 True 4.0 180.0 120.0 2.0 3.0 -2873.46250804 4.3077249527
33 214.516724842 316.350070367 -1 90.0 120.0 3.0 6.5 90.0 120.0 False 4.0 180.0 120.0 2.0 3.0 -2803.48327516 4.20041012764
34 276.437288999 354.191307357 1 90.0 120.0 3.0 6.5 90.0 120.0 False 4.0 180.0 120.0 1.5 3.0 2368.937289 3.88311004639
35 283.456622113 82.4296733414 1 90.0 120.0 3.0 6.5 90.0 120.0 False 4.0 180.0 120.0 1.25 3.0 2053.45662211 3.93519687653
36 288.884921767 218.119693931 1 90.0 120.0 3.0 6.5 90.0 120.0 True 4.0 180.0 120.0 1.5 3.0 None None
37 57.6794439448 330.736393648 -1 90.0 120.0 3.0 6.5 90.0 120.0 False 4.0 180.0 120.0 3.5 3.0 -2703.82055606 2.19897580147
38 201.074468772 314.425184886 1 90.0 120.0 3.0 6.5 90.0 120.0 True 4.0 180.0 120.0 1.25 3.0 1719.82446877 3.38340997696
39 68.9600255016 106.038095959 -1 90.0 120.0 3.0 6.5 90.0 120.0 True 4.0 180.0 120.0 1.0 3.0 -957.039974498 2.85776686668
40 237.18026918 352.012795075 1 90.0 120.0 3.0 6.5 90.0 120.0 False 4.0 180.0 120.0 3.0 3.0 2874.18026918 2.449655056
41 106.7908947 182.731847769 1 90.0 120.0 3.0 6.5 90.0 120.0 True 4.0 180.0 120.0 2.25 3.0 2746.0408947 3.26682186127
42 27.3045544509 145.422063313 -1 90.0 120.0 3.0 6.5 90.0 120.0 True 4.0 180.0 120.0 3.25 3.0 -3219.44544555 2.78318095207
43 164.624533184 346.508290996 1 90.0 120.0 3.0 6.5 90.0 120.0 True 4.0 180.0 120.0 3.0 3.0 2774.62453318 2.42540884018
44 269.253842805 356.212848542 1 90.0 120.0 3.0 6.5 90.0 120.0 False 4.0 180.0 120.0 3.5 3.0 3293.2538428 2.40727901459
45 297.011699687 327.66282793 1 90.0 120.0 3.0 6.5 90.0 120.0 True 4.0 180.0 120.0 3.5 3.0 3552.01169969 2.59180378914
46 133.14168451 70.6519629777 1 90.0 120.0 3.0 6.5 90.0 120.0 True 4.0 180.0 120.0 1.0 3.0 1138.14168451 2.79855179787
47 105.745145326 159.442233258 -1 90.0 120.0 3.0 6.5 90.0 120.0 True 4.0 180.0 120.0 2.25 3.0 -3039.75485467 3.88359904289
48 305.308769503 174.103059388 1 90.0 120.0 3.0 6.5 90.0 120.0 False 4.0 180.0 120.0 2.25 3.0 3255.0587695 3.6493268013
49 213.057921232 200.573289821 1 90.0 120.0 3.0 6.5 90.0 120.0 False 4.0 180.0 120.0 1.75 3.0 3310.55792123 4.9237101078
50 98.6929599198 128.313889285 1 90.0 120.0 3.0 6.5 90.0 120.0 False 4.0 180.0 120.0 2.75 3.0 2895.44295992 2.83256602287
51 159.786829192 48.7286380217 -1 90.0 120.0 3.0 6.5 90.0 120.0 False 4.0 180.0 120.0 1.5 3.0 -1397.21317081 2.88520002365
52 295.543846968 250.837496919 1 90.0 120.0 3.0 6.5 90.0 120.0 True 4.0 180.0 120.0 1.0 3.0 1447.54384697 3.20840787888
53 138.31577882 301.883027879 1 90.0 120.0 3.0 6.5 90.0 120.0 False 4.0 180.0 120.0 2.0 3.0 3084.31577882 4.09234619141
54 288.158103107 45.3236818258 -1 90.0 120.0 3.0 6.5 90.0 120.0 True 4.0 180.0 120.0 3.25 3.0 -2646.59189689 2.51595115662
55 236.096798933 123.184301074 -1 90.0 120.0 3.0 6.5 90.0 120.0 True 4.0 180.0 120.0 1.5 3.0 -2621.40320107 5.2927031517
56 312.64052776 180.113484007 -1 90.0 120.0 3.0 6.5 90.0 120.0 True 4.0 180.0 120.0 2.75 3.0 -2170.60947224 2.51630592346
57 5.94498301547 64.4696337605 -1 90.0 120.0 3.0 6.5 90.0 120.0 True 4.0 180.0 120.0 3.0 3.0 -2460.05501698 2.29029798508
58 46.6900549556 104.801900334 -1 90.0 120.0 3.0 6.5 90.0 120.0 False 4.0 180.0 120.0 2.0 3.0 -3961.30994504 5.57444190979
59 135.993939849 8.99899671102 -1 90.0 120.0 3.0 6.5 90.0 120.0 False 4.0 180.0 120.0 2.5 3.0 -2504.00606015 2.94019699097
60 337.68012212 49.2320164638 1 90.0 120.0 3.0 6.5 90.0 120.0 True 4.0 180.0 120.0 0.75 3.0 1102.68012212 2.83488893509
61 84.9417731667 94.3741517834 -1 90.0 120.0 3.0 6.5 90.0 120.0 True 4.0 180.0 120.0 1.75 3.0 -3516.55822683 5.72443604469
62 244.083261047 41.0733211755 1 90.0 120.0 3.0 6.5 90.0 120.0 False 4.0 180.0 120.0 1.5 3.0 2566.08326105 4.30798888206
63 239.90114644 269.214259206 1 90.0 120.0 3.0 6.5 90.0 120.0 False 4.0 180.0 120.0 2.5 3.0 2992.40114644 3.05976104736
64 91.7697115325 298.146599128 -1 90.0 120.0 3.0 6.5 90.0 120.0 False 4.0 180.0 120.0 1.75 3.0 -3420.48028847 5.5816860199
65 282.572382604 52.8092508212 -1 90.0 120.0 3.0 6.5 90.0 120.0 False 4.0 180.0 120.0 2.75 3.0 -2505.9276174 2.81816315651
66 43.9705838534 87.5128840967 1 90.0 120.0 3.0 6.5 90.0 120.0 True 4.0 180.0 120.0 1.75 3.0 3351.47058385 5.25703811646
67 292.73139493 323.095653533 1 90.0 120.0 3.0 6.5 90.0 120.0 True 4.0 180.0 120.0 3.25 3.0 3402.98139493 2.66677999496
68 247.780771809 126.189841856 1 90.0 120.0 3.0 6.5 90.0 120.0 True 4.0 180.0 120.0 2.25 3.0 3987.28077181 4.61802315712
69 353.294865844 178.680532202 -1 90.0 120.0 3.0 6.5 90.0 120.0 False 4.0 180.0 120.0 1.25 3.0 -1604.20513416 4.35830807686
70 98.3697022345 81.2783206792 1 90.0 120.0 3.0 6.5 90.0 120.0 True 4.0 180.0 120.0 2.0 3.0 2378.36970223 3.17495298386
71 118.454705517 148.417291721 1 90.0 120.0 3.0 6.5 90.0 120.0 False 4.0 180.0 120.0 1.0 3.0 1210.45470552 3.04054093361
72 330.253395517 359.153554886 -1 90.0 120.0 3.0 6.5 90.0 120.0 True 4.0 180.0 120.0 1.0 3.0 -893.746604483 3.40031313896
73 299.863977268 130.082795283 1 90.0 120.0 3.0 6.5 90.0 120.0 False 4.0 180.0 120.0 2.25 3.0 2567.86397727 2.80125999451
74 85.9905468206 343.686624244 -1 90.0 120.0 3.0 6.5 90.0 120.0 False 4.0 180.0 120.0 3.0 3.0 -2749.00945318 2.63376903534
75 206.55258639 218.253743928 -1 90.0 120.0 3.0 6.5 90.0 120.0 True 4.0 180.0 120.0 2.25 3.0 -2587.94741361 3.45697712898
76 206.218890665 284.851280241 -1 90.0 120.0 3.0 6.5 90.0 120.0 True 4.0 180.0 120.0 2.5 3.0 -3911.28110933 4.57570505142
77 174.968425873 47.2316270297 1 90.0 120.0 3.0 6.5 90.0 120.0 False 4.0 180.0 120.0 0.75 3.0 930.968425873 2.80868697166
78 8.31777765449 154.26962367 1 90.0 120.0 3.0 6.5 90.0 120.0 True 4.0 180.0 120.0 2.75 3.0 2739.06777765 2.7668159008
79 303.566988589 12.846417449 -1 90.0 120.0 3.0 6.5 90.0 120.0 False 4.0 180.0 120.0 3.25 3.0 -2426.43301141 2.34178709984
80 234.689138317 300.215566707 -1 90.0 120.0 3.0 6.5 90.0 120.0 False 4.0 180.0 120.0 0.75 3.0 -593.310861683 3.07541108131
81 343.937479833 142.618306422 -1 90.0 120.0 3.0 6.5 90.0 120.0 True 4.0 180.0 120.0 3.5 3.0 -2512.06252017 2.27443408966
82 80.1252914685 90.7018336593 1 90.0 120.0 3.0 6.5 90.0 120.0 True 4.0 180.0 120.0 1.5 3.0 2753.12529147 4.951597929
83 180.806128605 74.2424609092 1 90.0 120.0 3.0 6.5 90.0 120.0 False 4.0 180.0 120.0 3.0 3.0 2754.80612861 2.39134192467
84 133.43650748 127.347203155 -1 90.0 120.0 3.0 6.5 90.0 120.0 True 4.0 180.0 120.0 0.75 3.0 -595.56349252 2.70794987679
85 50.4828215407 144.349949452 -1 90.0 120.0 3.0 6.5 90.0 120.0 False 4.0 180.0 120.0 2.25 3.0 -1873.26717846 2.38234806061
86 151.698452209 169.172652006 -1 90.0 120.0 3.0 6.5 90.0 120.0 False 4.0 180.0 120.0 1.0 3.0 -1237.30154779 3.86682915688
87 216.977482518 265.202532256 1 90.0 120.0 3.0 6.5 90.0 120.0 True 4.0 180.0 120.0 3.0 3.0 2880.97748252 2.47425913811
88 155.672996923 119.011527603 1 90.0 120.0 3.0 6.5 90.0 120.0 True 4.0 180.0 120.0 3.5 3.0 3095.67299692 2.33529806137
89 26.4434880141 170.484075912 -1 90.0 120.0 3.0 6.5 90.0 120.0 False 4.0 180.0 120.0 3.5 3.0 -2903.05651199 2.32690191269
90 338.551585038 55.6499477778 -1 90.0 120.0 3.0 6.5 90.0 120.0 True 4.0 180.0 120.0 2.0 3.0 -3231.44841496 4.96621489525
91 126.284594774 115.912871701 1 90.0 120.0 3.0 6.5 90.0 120.0 True 4.0 180.0 120.0 1.25 3.0 1367.53459477 2.76533293724
92 172.664025301 321.657501379 -1 90.0 120.0 3.0 6.5 90.0 120.0 True 4.0 180.0 120.0 1.25 3.0 -2163.5859747 5.19864082336
93 54.787508639 23.6598554686 1 90.0 120.0 3.0 6.5 90.0 120.0 False 4.0 180.0 120.0 1.25 3.0 1284.78750864 2.74200105667
94 300.041773905 75.8296349414 1 90.0 120.0 3.0 6.5 90.0 120.0 True 4.0 180.0 120.0 2.5 3.0 2497.54177391 2.44831490517
95 206.885615782 343.061392215 1 90.0 120.0 3.0 6.5 90.0 120.0 False 4.0 180.0 120.0 3.5 3.0 3157.38561578 2.34951019287
96 11.7728487558 7.51622875233 1 90.0 120.0 3.0 6.5 90.0 120.0 False 4.0 180.0 120.0 3.25 3.0 3200.02284876 2.72596001625
97 327.898215793 219.329560009 -1 90.0 120.0 3.0 6.5 90.0 120.0 False 4.0 180.0 120.0 1.0 3.0 -1022.10178421 3.75745105743
98 54.8682512054 62.39045037 -1 90.0 120.0 3.0 6.5 90.0 120.0 True 4.0 180.0 120.0 2.5 3.0 -2000.13174879 2.28538298607
99 245.655336114 85.339153018 1 90.0 120.0 3.0 6.5 90.0 120.0 False 4.0 180.0 120.0 2.5 3.0 3508.15533611 3.63266396523
100 244.164921834 3.16785894091 1 90.0 120.0 3.0 6.5 90.0 120.0 False 4.0 180.0 120.0 3.25 3.0 2935.16492183 2.30140304565
101 42.5409260597 120.529651625 -1 90.0 120.0 3.0 6.5 90.0 120.0 True 4.0 180.0 120.0 0.75 3.0 -733.70907394 2.88324689865
102 33.1364399407 68.2883060254 -1 90.0 120.0 3.0 6.5 90.0 120.0 False 4.0 180.0 120.0 2.75 3.0 -2194.36356006 2.25854492188
103 291.800855768 313.884998128 -1 90.0 120.0 3.0 6.5 90.0 120.0 False 4.0 180.0 120.0 1.75 3.0 -3288.69914423 5.68396019936
104 135.879943958 79.1652435394 -1 90.0 120.0 3.0 6.5 90.0 120.0 True 4.0 180.0 120.0 2.0 3.0 -3164.12005604 4.59018015862
105 303.638854263 310.958954286 1 90.0 120.0 3.0 6.5 90.0 120.0 True 4.0 180.0 120.0 0.75 3.0 1014.63885426 2.64102888107
106 41.8235937421 100.633517124 -1 90.0 120.0 3.0 6.5 90.0 120.0 True 4.0 180.0 120.0 2.75 3.0 -2433.17640626 2.50226187706
107 63.8115671035 119.137898271 1 90.0 120.0 3.0 6.5 90.0 120.0 True 4.0 180.0 120.0 2.25 3.0 3945.0615671 4.79937195778
108 51.3517564818 321.275116708 1 90.0 120.0 3.0 6.5 90.0 120.0 True 4.0 180.0 120.0 1.25 3.0 2271.35175648 4.94108390808
109 177.749944865 295.1053163 1 90.0 120.0 3.0 6.5 90.0 120.0 True 4.0 180.0 120.0 2.0 3.0 2193.74994487 2.80855202675
110 62.5922669882 63.8598573284 1 90.0 120.0 3.0 6.5 90.0 120.0 False 4.0 180.0 120.0 2.25 3.0 2134.84226699 2.56496500969
111 265.970135206 223.393424975 -1 90.0 120.0 3.0 6.5 90.0 120.0 True 4.0 180.0 120.0 2.25 3.0 -3318.27986479 4.43349385262
112 196.057011685 233.535348957 -1 90.0 120.0 3.0 6.5 90.0 120.0 True 4.0 180.0 120.0 3.5 3.0 -2743.94298831 2.3417160511
113 177.781920461 197.140997572 1 90.0 120.0 3.0 6.5 90.0 120.0 True 4.0 180.0 120.0 3.25 3.0 3249.03192046 2.63176512718
114 104.685747005 196.359691094 -1 90.0 120.0 3.0 6.5 90.0 120.0 False 4.0 180.0 120.0 3.5 3.0 -3139.81425299 2.58368492126
115 117.025861407 257.987219662 -1 90.0 120.0 3.0 6.5 90.0 120.0 False 4.0 180.0 120.0 3.25 3.0 -2993.22413859 2.65983104706
116 277.123446908 208.430375411 1 90.0 120.0 3.0 6.5 90.0 120.0 False 4.0 180.0 120.0 2.75 3.0 5185.87344691 4.96554803848
117 7.61851304427 216.937736523 -1 90.0 120.0 3.0 6.5 90.0 120.0 False 4.0 180.0 120.0 2.0 3.0 None None
118 62.9192155272 287.439000924 1 90.0 120.0 3.0 6.5 90.0 120.0 True 4.0 180.0 120.0 1.75 3.0 2624.91921553 4.07491517067
119 181.598430642 146.313400018 1 90.0 120.0 3.0 6.5 90.0 120.0 False 4.0 180.0 120.0 1.25 3.0 1584.09843064 3.12471199036
120 178.686915357 279.563923392 1 90.0 120.0 3.0 6.5 90.0 120.0 False 4.0 180.0 120.0 2.0 3.0 2098.68691536 2.67439603806
121 305.015211533 75.0536493477 -1 90.0 120.0 3.0 6.5 90.0 120.0 True 4.0 180.0 120.0 1.25 3.0 -1532.48478847 4.09103012085
122 209.910694328 56.7938066348 1 90.0 120.0 3.0 6.5 90.0 120.0 True 4.0 180.0 120.0 2.5 3.0 2437.41069433 2.48194503784
123 314.232281483 346.488210832 -1 90.0 120.0 3.0 6.5 90.0 120.0 False 4.0 180.0 120.0 0.75 3.0 -552.017718517 3.2106859684
124 170.685517374 273.292587652 1 90.0 120.0 3.0 6.5 90.0 120.0 True 4.0 180.0 120.0 2.75 3.0 2810.68551737 2.67383909225
125 219.157116839 175.772812238 1 90.0 120.0 3.0 6.5 90.0 120.0 True 4.0 180.0 120.0 3.0 3.0 2802.15711684 2.39408183098
126 231.606959543 307.40889526 -1 90.0 120.0 3.0 6.5 90.0 120.0 False 4.0 180.0 120.0 1.25 3.0 -2014.64304046 4.99327301979
127 355.839146835 354.905009242 -1 90.0 120.0 3.0 6.5 90.0 120.0 False 4.0 180.0 120.0 1.5 3.0 -2492.66085316 5.28254294395
128 178.523432141 210.576691337 -1 90.0 120.0 3.0 6.5 90.0 120.0 False 4.0 180.0 120.0 2.25 3.0 -1934.22656786 2.61622691154
129 274.921150838 39.4871757505 -1 90.0 120.0 3.0 6.5 90.0 120.0 True 4.0 180.0 120.0 1.0 3.0 -853.078849162 3.14056587219
130 230.55175113 105.898398986 -1 90.0 120.0 3.0 6.5 90.0 120.0 True 4.0 180.0 120.0 3.25 3.0 -2372.69824887 2.23179602623
131 256.123387803 273.685354009 -1 90.0 120.0 3.0 6.5 90.0 120.0 True 4.0 180.0 120.0 1.75 3.0 None None
132 223.84387128 121.373996529 -1 90.0 120.0 3.0 6.5 90.0 120.0 False 4.0 180.0 120.0 2.5 3.0 58.8438712802 0.189888000488
133 309.318772771 4.59814724152 1 90.0 120.0 3.0 6.5 90.0 120.0 False 4.0 180.0 120.0 1.75 3.0 2713.81877277 3.82332396507
134 183.056004697 347.872172869 -1 90.0 120.0 3.0 6.5 90.0 120.0 True 4.0 180.0 120.0 3.0 3.0 -2408.9439953 2.40829896927
135 121.924119336 225.211689553 1 90.0 120.0 3.0 6.5 90.0 120.0 False 4.0 180.0 120.0 1.5 3.0 2367.42411934 4.1605091095
136 72.5733006836 214.386696504 1 90.0 120.0 3.0 6.5 90.0 120.0 False 4.0 180.0 120.0 1.0 3.0 1083.57330068 2.8158659935
137 334.899439166 263.781502846 1 90.0 120.0 3.0 6.5 90.0 120.0 False 4.0 180.0 120.0 0.75 3.0 1151.64943917 3.03276991844
138 246.363959191 5.77358553067 1 90.0 120.0 3.0 6.5 90.0 120.0 True 4.0 180.0 120.0 1.0 3.0 1809.36395919 4.35046195984
139 172.777209659 152.250012393 1 90.0 120.0 3.0 6.5 90.0 120.0 False 4.0 180.0 120.0 3.0 3.0 2755.77720966 2.40052914619
140 124.721054189 0.349353008351 1 90.0 120.0 3.0 6.5 90.0 120.0 False 4.0 180.0 120.0 3.5 3.0 2938.72105419 2.24084687233
141 192.228575083 71.4550476454 1 90.0 120.0 3.0 6.5 90.0 120.0 True 4.0 180.0 120.0 1.5 3.0 2752.72857508 4.74292683601
142 219.511627856 188.869190166 -1 90.0 120.0 3.0 6.5 90.0 120.0 False 4.0 180.0 120.0 3.0 3.0 -2336.48837214 2.37381792068
143 91.9239602333 32.1015735368 1 90.0 120.0 3.0 6.5 90.0 120.0 True 4.0 180.0 120.0 3.5 3.0 2884.92396023 2.22547006607
144 229.116977946 204.754570248 -1 90.0 120.0 3.0 6.5 90.0 120.0 True 4.0 180.0 120.0 1.5 3.0 -2650.88302205 5.33520507812
