trial angleIni angleLandmark direction durationRampingIni durationFinal sizeLandmark radiusLandmark durationRampingFinal durationIni same radius duration durationRampingLand freq size response responseTime
1 106.426395202 44.1820875088 -1 90.0 120.0 3.0 6.5 90.0 120.0 False 4.0 180.0 120.0 2.5 3.0 -3133.5736048 3.61133098602
2 116.123864085 132.887340421 -1 90.0 120.0 3.0 6.5 90.0 120.0 False 4.0 180.0 120.0 2.25 3.0 -3299.37613591 4.22433900833
3 316.101945374 60.8117943189 1 90.0 120.0 3.0 6.5 90.0 120.0 False 4.0 180.0 120.0 2.25 3.0 4008.35194537 4.56100487709
4 5.25332291592 333.618358859 1 90.0 120.0 3.0 6.5 90.0 120.0 True 4.0 180.0 120.0 2.5 3.0 3597.75332292 3.9922940731
5 225.500969919 112.865396171 1 90.0 120.0 3.0 6.5 90.0 120.0 False 4.0 180.0 120.0 1.5 3.0 2687.00096992 4.55975413322
6 165.554489389 112.776099862 1 90.0 120.0 3.0 6.5 90.0 120.0 True 4.0 180.0 120.0 0.75 3.0 1000.30448939 3.09888100624
7 64.5115359563 32.890989188 1 90.0 120.0 3.0 6.5 90.0 120.0 False 4.0 180.0 120.0 3.25 3.0 3389.26153596 2.84874892235
8 301.60377942 198.857975873 -1 90.0 120.0 3.0 6.5 90.0 120.0 True 4.0 180.0 120.0 3.0 3.0 -4099.39622058 4.08200097084
9 78.062283581 65.8038678552 1 90.0 120.0 3.0 6.5 90.0 120.0 False 4.0 180.0 120.0 1.0 3.0 1536.06228358 4.05745387077
10 0.774959326684 346.944986718 -1 90.0 120.0 3.0 6.5 90.0 120.0 True 4.0 180.0 120.0 1.0 3.0 -1097.22504067 3.05711913109
11 194.887117635 63.8923771741 1 90.0 120.0 3.0 6.5 90.0 120.0 False 4.0 180.0 120.0 2.5 3.0 2692.38711763 2.7826499939
12 42.7744235759 25.2126281893 1 90.0 120.0 3.0 6.5 90.0 120.0 True 4.0 180.0 120.0 3.25 3.0 4264.52442358 3.61636805534
13 254.987931622 234.767071921 -1 90.0 120.0 3.0 6.5 90.0 120.0 True 4.0 180.0 120.0 3.25 3.0 -4142.26206838 3.75955915451
14 158.013741865 32.2546913738 1 90.0 120.0 3.0 6.5 90.0 120.0 True 4.0 180.0 120.0 1.5 3.0 2426.01374187 4.20786213875
15 202.630233155 317.7586566 -1 90.0 120.0 3.0 6.5 90.0 120.0 True 4.0 180.0 120.0 0.75 3.0 -758.119766845 3.56658792496
16 254.565036254 204.023947538 1 90.0 120.0 3.0 6.5 90.0 120.0 False 4.0 180.0 120.0 3.0 3.0 4106.56503625 3.5742418766
17 76.8048786198 50.3534337564 -1 90.0 120.0 3.0 6.5 90.0 120.0 False 4.0 180.0 120.0 1.75 3.0 -2563.94512138 4.19961214066
18 206.704669433 329.72747629 -1 90.0 120.0 3.0 6.5 90.0 120.0 False 4.0 180.0 120.0 3.0 3.0 -3672.29533057 3.59985208511
19 347.820248649 188.695627508 1 90.0 120.0 3.0 6.5 90.0 120.0 False 4.0 180.0 120.0 1.75 3.0 2941.32024865 4.11868691444
20 98.2083253847 112.575246005 1 90.0 120.0 3.0 6.5 90.0 120.0 False 4.0 180.0 120.0 2.75 3.0 3447.70832538 3.39065599442
21 104.078696587 187.07479178 1 90.0 120.0 3.0 6.5 90.0 120.0 False 4.0 180.0 120.0 1.25 3.0 1637.82869659 3.41685009003
22 211.690662777 79.4151988196 1 90.0 120.0 3.0 6.5 90.0 120.0 True 4.0 180.0 120.0 1.0 3.0 1483.69066278 3.5416238308
23 53.1254709243 233.389660277 -1 90.0 120.0 3.0 6.5 90.0 120.0 False 4.0 180.0 120.0 1.25 3.0 -1769.37452908 4.05764102936
24 156.191711058 127.891057373 1 90.0 120.0 3.0 6.5 90.0 120.0 False 4.0 180.0 120.0 0.75 3.0 840.191711058 2.54149508476
25 304.624638001 224.580358709 -1 90.0 120.0 3.0 6.5 90.0 120.0 True 4.0 180.0 120.0 2.0 3.0 -1615.375362 2.66819000244
26 330.367671441 324.491868913 -1 90.0 120.0 3.0 6.5 90.0 120.0 True 4.0 180.0 120.0 1.25 3.0 -1645.88232856 4.40007209778
27 234.242183457 69.0121368409 1 90.0 120.0 3.0 6.5 90.0 120.0 True 4.0 180.0 120.0 2.0 3.0 3480.24218346 4.50898981094
28 125.620350796 265.389396777 -1 90.0 120.0 3.0 6.5 90.0 120.0 True 4.0 180.0 120.0 3.5 3.0 -3654.3796492 3.00698280334
29 168.904950363 195.738885489 1 90.0 120.0 3.0 6.5 90.0 120.0 True 4.0 180.0 120.0 2.75 3.0 4260.90495036 4.14082098007
30 206.755294131 35.8409809251 -1 90.0 120.0 3.0 6.5 90.0 120.0 False 4.0 180.0 120.0 0.75 3.0 -666.244705869 3.24148201942
31 307.914373878 116.214416296 -1 90.0 120.0 3.0 6.5 90.0 120.0 False 4.0 180.0 120.0 2.0 3.0 -2566.08562612 3.9997689724
32 91.1910598422 47.4089807613 1 90.0 120.0 3.0 6.5 90.0 120.0 True 4.0 180.0 120.0 3.0 3.0 3133.19105984 2.82540988922
33 212.442161172 246.085629384 -1 90.0 120.0 3.0 6.5 90.0 120.0 True 4.0 180.0 120.0 2.5 3.0 -4130.05783883 4.82679200172
34 171.208600355 67.4147163153 -1 90.0 120.0 3.0 6.5 90.0 120.0 False 4.0 180.0 120.0 1.5 3.0 -2821.29139964 5.54846405983
35 162.353175925 106.636598706 -1 90.0 120.0 3.0 6.5 90.0 120.0 True 4.0 180.0 120.0 1.75 3.0 -3108.39682407 5.20005202293
36 190.663827598 337.085817022 -1 90.0 120.0 3.0 6.5 90.0 120.0 True 4.0 180.0 120.0 2.25 3.0 -3204.5861724 4.19811987877
37 121.821249595 227.198788492 1 90.0 120.0 3.0 6.5 90.0 120.0 True 4.0 180.0 120.0 2.25 3.0 3692.57124959 4.4167599678
38 212.749398581 336.55212894 1 90.0 120.0 3.0 6.5 90.0 120.0 False 4.0 180.0 120.0 2.0 3.0 4424.74939858 5.85138297081
39 285.970250588 226.313101877 -1 90.0 120.0 3.0 6.5 90.0 120.0 True 4.0 180.0 120.0 1.5 3.0 -2279.02974941 4.7571041584
40 315.806771681 46.3259975145 -1 90.0 120.0 3.0 6.5 90.0 120.0 False 4.0 180.0 120.0 1.0 3.0 -1040.19322832 3.77516698837
41 225.214494729 77.2198897174 1 90.0 120.0 3.0 6.5 90.0 120.0 True 4.0 180.0 120.0 1.25 3.0 1893.96449473 3.71579504013
42 70.9316187779 227.730009191 -1 90.0 120.0 3.0 6.5 90.0 120.0 True 4.0 180.0 120.0 2.75 3.0 -3245.56838122 3.35782694817
43 167.956619968 253.821473496 1 90.0 120.0 3.0 6.5 90.0 120.0 True 4.0 180.0 120.0 1.75 3.0 2756.20661997 4.11533308029
44 231.998826173 201.134166202 1 90.0 120.0 3.0 6.5 90.0 120.0 False 4.0 180.0 120.0 3.5 3.0 3308.49882617 2.44922685623
45 152.05582646 7.59048369853 -1 90.0 120.0 3.0 6.5 90.0 120.0 False 4.0 180.0 120.0 2.75 3.0 -4913.44417354 5.12515497208
46 97.5799431955 7.8481153566 -1 90.0 120.0 3.0 6.5 90.0 120.0 False 4.0 180.0 120.0 3.5 3.0 -3755.9200568 3.06589603424
47 314.062744991 346.50578676 1 90.0 120.0 3.0 6.5 90.0 120.0 True 4.0 180.0 120.0 3.5 3.0 3117.56274499 2.22716403008
48 258.2389695 9.84676598932 -1 90.0 120.0 3.0 6.5 90.0 120.0 False 4.0 180.0 120.0 3.25 3.0 -3817.2610305 3.49079394341
49 39.1983351792 208.701416063 -1 90.0 120.0 3.0 6.5 90.0 120.0 True 4.0 180.0 120.0 1.75 3.0 -2501.80166482 4.03476595879
50 319.413184972 1.20760626709 -1 90.0 120.0 3.0 6.5 90.0 120.0 False 4.0 180.0 120.0 3.25 3.0 -3609.83681503 3.36580300331
51 231.283622111 291.527936053 1 90.0 120.0 3.0 6.5 90.0 120.0 False 4.0 180.0 120.0 2.5 3.0 3651.28362211 3.80052804947
52 156.815407107 234.659539423 1 90.0 120.0 3.0 6.5 90.0 120.0 True 4.0 180.0 120.0 1.5 3.0 1803.81540711 3.05794000626
53 180.821527303 58.459276945 1 90.0 120.0 3.0 6.5 90.0 120.0 True 4.0 180.0 120.0 3.25 3.0 2969.3215273 2.38503098488
54 107.693983817 352.933241651 1 90.0 120.0 3.0 6.5 90.0 120.0 False 4.0 180.0 120.0 3.5 3.0 3289.19398382 2.5329580307
55 271.453526366 75.2178687734 -1 90.0 120.0 3.0 6.5 90.0 120.0 True 4.0 180.0 120.0 1.5 3.0 -1560.04647363 3.39216899872
56 157.720338935 351.560944355 1 90.0 120.0 3.0 6.5 90.0 120.0 True 4.0 180.0 120.0 1.25 3.0 1980.22033894 4.05862689018
57 30.9785695572 306.524667218 1 90.0 120.0 3.0 6.5 90.0 120.0 False 4.0 180.0 120.0 2.75 3.0 3710.47856956 3.72435498238
58 325.287747123 299.573621584 1 90.0 120.0 3.0 6.5 90.0 120.0 False 4.0 180.0 120.0 2.0 3.0 3535.28774712 4.46638894081
59 17.9348841035 52.4500440039 -1 90.0 120.0 3.0 6.5 90.0 120.0 False 4.0 180.0 120.0 1.25 3.0 -1395.8151159 3.14821696281
60 250.489052227 196.328530671 -1 90.0 120.0 3.0 6.5 90.0 120.0 False 4.0 180.0 120.0 2.5 3.0 -2682.01094777 3.26488900185
61 315.685821154 134.277965073 -1 90.0 120.0 3.0 6.5 90.0 120.0 True 4.0 180.0 120.0 2.5 3.0 -2954.31417885 3.64091801643
62 13.5835641322 84.9632863195 1 90.0 120.0 3.0 6.5 90.0 120.0 False 4.0 180.0 120.0 2.25 3.0 4016.33356413 4.94261693954
63 301.48574793 138.713317934 -1 90.0 120.0 3.0 6.5 90.0 120.0 False 4.0 180.0 120.0 3.0 3.0 -3730.51425207 3.74175405502
64 209.923889319 75.4119396691 -1 90.0 120.0 3.0 6.5 90.0 120.0 False 4.0 180.0 120.0 2.25 3.0 -3536.32611068 4.63228297234
65 170.43540736 117.301617554 1 90.0 120.0 3.0 6.5 90.0 120.0 False 4.0 180.0 120.0 0.75 3.0 996.18540736 3.06620597839
66 302.376100967 105.290578557 -1 90.0 120.0 3.0 6.5 90.0 120.0 True 4.0 180.0 120.0 1.0 3.0 -789.623899033 3.03997898102
67 278.218329705 262.772410953 1 90.0 120.0 3.0 6.5 90.0 120.0 True 4.0 180.0 120.0 2.25 3.0 3403.46832971 3.86507201195
68 280.172487276 356.189025817 -1 90.0 120.0 3.0 6.5 90.0 120.0 True 4.0 180.0 120.0 3.5 3.0 -2628.32751272 2.31696605682
69 299.828640845 51.6006375658 -1 90.0 120.0 3.0 6.5 90.0 120.0 True 4.0 180.0 120.0 2.25 3.0 -3264.17135915 4.40846991539
70 74.191577997 151.268304073 1 90.0 120.0 3.0 6.5 90.0 120.0 True 4.0 180.0 120.0 2.5 3.0 3764.191578 4.10257792473
71 146.864917978 189.512526014 -1 90.0 120.0 3.0 6.5 90.0 120.0 True 4.0 180.0 120.0 2.75 3.0 -3780.13508202 3.97525691986
72 358.873027634 267.122214668 1 90.0 120.0 3.0 6.5 90.0 120.0 True 4.0 180.0 120.0 1.75 3.0 2957.62302763 4.12606096268
73 272.308849614 196.10543116 -1 90.0 120.0 3.0 6.5 90.0 120.0 False 4.0 180.0 120.0 1.0 3.0 -873.691150386 3.1909661293
74 42.8419945927 130.78880537 -1 90.0 120.0 3.0 6.5 90.0 120.0 True 4.0 180.0 120.0 1.25 3.0 -2012.15800541 4.57399106026
75 300.105128513 87.764189442 1 90.0 120.0 3.0 6.5 90.0 120.0 False 4.0 180.0 120.0 3.25 3.0 3332.35512851 2.5998749733
76 117.0289107 70.8814474013 1 90.0 120.0 3.0 6.5 90.0 120.0 True 4.0 180.0 120.0 1.0 3.0 1329.0289107 3.3733818531
77 116.291784242 96.3999812941 1 90.0 120.0 3.0 6.5 90.0 120.0 False 4.0 180.0 120.0 3.0 3.0 2537.29178424 2.24949193001
78 281.821677998 8.18724185241 1 90.0 120.0 3.0 6.5 90.0 120.0 False 4.0 180.0 120.0 1.75 3.0 3043.321678 4.39157485962
79 81.3519080787 159.471295269 -1 90.0 120.0 3.0 6.5 90.0 120.0 False 4.0 180.0 120.0 3.5 3.0 -4748.64809192 3.84164404869
80 301.113327485 27.3210811491 1 90.0 120.0 3.0 6.5 90.0 120.0 True 4.0 180.0 120.0 2.0 3.0 3319.11332749 4.20024609566
81 176.909529651 190.406981931 -1 90.0 120.0 3.0 6.5 90.0 120.0 True 4.0 180.0 120.0 2.0 3.0 -3135.09047035 4.60822892189
82 269.419954601 254.230073926 -1 90.0 120.0 3.0 6.5 90.0 120.0 False 4.0 180.0 120.0 1.75 3.0 -2266.3300454 4.03245711327
83 311.718361341 262.020799135 -1 90.0 120.0 3.0 6.5 90.0 120.0 False 4.0 180.0 120.0 2.75 3.0 -2386.03163866 2.73347592354
84 128.405550106 159.373727067 -1 90.0 120.0 3.0 6.5 90.0 120.0 False 4.0 180.0 120.0 0.75 3.0 -731.094449894 3.19099617004
85 39.648380757 310.905314823 -1 90.0 120.0 3.0 6.5 90.0 120.0 True 4.0 180.0 120.0 3.0 3.0 -3137.35161924 2.94938898087
86 185.721145417 124.992170827 1 90.0 120.0 3.0 6.5 90.0 120.0 False 4.0 180.0 120.0 1.5 3.0 2116.22114542 3.58251881599
87 152.809015418 39.9278537711 1 90.0 120.0 3.0 6.5 90.0 120.0 True 4.0 180.0 120.0 3.5 3.0 3334.30901542 2.5325949192
88 194.102604275 73.4019902875 -1 90.0 120.0 3.0 6.5 90.0 120.0 True 4.0 180.0 120.0 3.25 3.0 -3403.64739573 3.07706594467
89 126.915833594 71.2055151373 -1 90.0 120.0 3.0 6.5 90.0 120.0 False 4.0 180.0 120.0 2.0 3.0 -3239.08416641 4.67657995224
90 149.068471164 174.794703996 1 90.0 120.0 3.0 6.5 90.0 120.0 True 4.0 180.0 120.0 3.0 3.0 3146.06847116 2.78193306923
91 81.7636371325 288.638343382 -1 90.0 120.0 3.0 6.5 90.0 120.0 False 4.0 180.0 120.0 1.5 3.0 -1997.23636287 3.85829687119
92 98.9391402352 202.175834174 1 90.0 120.0 3.0 6.5 90.0 120.0 True 4.0 180.0 120.0 0.75 3.0 1084.43914024 3.65046596527
93 263.458211893 173.044535181 -1 90.0 120.0 3.0 6.5 90.0 120.0 True 4.0 180.0 120.0 0.75 3.0 -717.541788107 3.6347990036
94 21.2941563941 155.413470539 1 90.0 120.0 3.0 6.5 90.0 120.0 True 4.0 180.0 120.0 2.75 3.0 2735.54415639 2.7490530014
95 40.1157051692 5.73678631062 1 90.0 120.0 3.0 6.5 90.0 120.0 False 4.0 180.0 120.0 1.0 3.0 1621.11570517 4.40027999878
96 96.084813528 101.548827684 1 90.0 120.0 3.0 6.5 90.0 120.0 False 4.0 180.0 120.0 1.25 3.0 1922.33481353 4.05856108665
97 325.834648744 44.8211094314 1 90.0 120.0 3.0 6.5 90.0 120.0 False 4.0 180.0 120.0 2.75 3.0 4368.33464874 4.09162211418
98 52.3666704671 83.4355962052 -1 90.0 120.0 3.0 6.5 90.0 120.0 True 4.0 180.0 120.0 1.25 3.0 -1702.63332953 3.9079978466
99 6.20102667279 142.552728474 1 90.0 120.0 3.0 6.5 90.0 120.0 False 4.0 180.0 120.0 1.5 3.0 2139.20102667 3.95766615868
100 116.799972206 291.638577061 -1 90.0 120.0 3.0 6.5 90.0 120.0 True 4.0 180.0 120.0 2.75 3.0 -4016.45002779 4.18375611305
101 166.320601088 94.904417711 -1 90.0 120.0 3.0 6.5 90.0 120.0 True 4.0 180.0 120.0 0.75 3.0 -792.179398912 3.55695581436
102 301.393688988 158.961725157 1 90.0 120.0 3.0 6.5 90.0 120.0 True 4.0 180.0 120.0 0.75 3.0 1223.89368899 3.41760396957
103 127.552311325 292.683828002 1 90.0 120.0 3.0 6.5 90.0 120.0 True 4.0 180.0 120.0 1.5 3.0 2445.05231133 4.29975414276
104 269.145386308 79.0399924844 1 90.0 120.0 3.0 6.5 90.0 120.0 True 4.0 180.0 120.0 1.25 3.0 2054.14538631 3.96925401688
105 287.32134011 43.0664734383 1 90.0 120.0 3.0 6.5 90.0 120.0 True 4.0 180.0 120.0 2.75 3.0 3059.32134011 2.80131316185
106 24.9573078936 259.606943976 1 90.0 120.0 3.0 6.5 90.0 120.0 False 4.0 180.0 120.0 3.25 3.0 3593.45730789 3.05781698227
107 141.97860525 64.6591558461 -1 90.0 120.0 3.0 6.5 90.0 120.0 True 4.0 180.0 120.0 2.5 3.0 -3488.02139475 4.04088187218
108 8.72386165517 13.7444413365 -1 90.0 120.0 3.0 6.5 90.0 120.0 False 4.0 180.0 120.0 3.0 3.0 -3492.27613834 3.24990391731
109 258.856443035 61.5091685687 1 90.0 120.0 3.0 6.5 90.0 120.0 False 4.0 180.0 120.0 2.0 3.0 3222.85644303 4.12441706657
110 146.638460439 259.6394029 1 90.0 120.0 3.0 6.5 90.0 120.0 False 4.0 180.0 120.0 0.75 3.0 1143.38846044 3.69887399673
111 158.912709376 184.891727867 -1 90.0 120.0 3.0 6.5 90.0 120.0 True 4.0 180.0 120.0 2.25 3.0 9999 9999
112 218.872770425 321.504074721 1 90.0 120.0 3.0 6.5 90.0 120.0 False 4.0 180.0 120.0 3.5 3.0 355.372770425 0.116517066956
113 227.23718782 122.19034642 -1 90.0 120.0 3.0 6.5 90.0 120.0 False 4.0 180.0 120.0 3.5 3.0 -3248.26281218 2.76041293144
114 52.2447119268 204.688844337 1 90.0 120.0 3.0 6.5 90.0 120.0 False 4.0 180.0 120.0 3.0 3.0 3769.24471193 3.44971704483
115 208.702423853 341.032720992 -1 90.0 120.0 3.0 6.5 90.0 120.0 False 4.0 180.0 120.0 1.0 3.0 -1267.29757615 4.10745215416
116 354.642774819 344.039952898 -1 90.0 120.0 3.0 6.5 90.0 120.0 False 4.0 180.0 120.0 2.0 3.0 -2375.35722518 3.79843187332
117 141.954130923 116.782805108 -1 90.0 120.0 3.0 6.5 90.0 120.0 True 4.0 180.0 120.0 1.75 3.0 -2451.54586908 4.11929106712
118 287.509850235 72.0367734069 1 90.0 120.0 3.0 6.5 90.0 120.0 True 4.0 180.0 120.0 1.75 3.0 3217.00985023 4.65801501274
119 92.3334928878 151.523393368 -1 90.0 120.0 3.0 6.5 90.0 120.0 True 4.0 180.0 120.0 1.0 3.0 -1119.66650711 3.36748099327
120 149.069665823 154.261363428 -1 90.0 120.0 3.0 6.5 90.0 120.0 True 4.0 180.0 120.0 1.5 3.0 -1857.93033418 3.72364401817
121 49.5807850984 80.33964769 1 90.0 120.0 3.0 6.5 90.0 120.0 False 4.0 180.0 120.0 2.25 3.0 3046.5807851 3.70744204521
122 142.462159741 54.3035758785 1 90.0 120.0 3.0 6.5 90.0 120.0 True 4.0 180.0 120.0 2.5 3.0 2842.46215974 3.00792217255
123 37.7343684206 141.609303349 -1 90.0 120.0 3.0 6.5 90.0 120.0 True 4.0 180.0 120.0 3.5 3.0 -2776.26563158 2.24197602272
124 343.773557042 195.018221356 1 90.0 120.0 3.0 6.5 90.0 120.0 True 4.0 180.0 120.0 2.25 3.0 3003.27355704 3.29197096825
125 233.120657666 86.0477096415 -1 90.0 120.0 3.0 6.5 90.0 120.0 False 4.0 180.0 120.0 1.5 3.0 -1539.87934233 3.29193115234
126 190.986974352 78.1207053111 1 90.0 120.0 3.0 6.5 90.0 120.0 False 4.0 180.0 120.0 1.75 3.0 2511.48697435 3.69060993195
127 42.44900342 333.773116659 -1 90.0 120.0 3.0 6.5 90.0 120.0 False 4.0 180.0 120.0 1.25 3.0 -1615.05099658 3.69150590897
128 51.514225625 23.5983280573 1 90.0 120.0 3.0 6.5 90.0 120.0 True 4.0 180.0 120.0 3.25 3.0 2996.01422563 2.51885604858
129 214.437451049 46.5541487227 1 90.0 120.0 3.0 6.5 90.0 120.0 False 4.0 180.0 120.0 1.25 3.0 2021.93745105 4.02530694008
130 197.464285306 108.383222371 1 90.0 120.0 3.0 6.5 90.0 120.0 True 4.0 180.0 120.0 3.5 3.0 3242.46428531 2.42470908165
131 37.7251660345 298.712145285 1 90.0 120.0 3.0 6.5 90.0 120.0 False 4.0 180.0 120.0 1.0 3.0 1180.72516603 3.18286108971
132 111.491581073 22.8155036264 -1 90.0 120.0 3.0 6.5 90.0 120.0 True 4.0 180.0 120.0 3.25 3.0 -3915.25841893 3.44967103004
133 168.258046869 213.036448982 1 90.0 120.0 3.0 6.5 90.0 120.0 False 4.0 180.0 120.0 2.5 3.0 3295.75804687 3.48284101486
134 166.715560389 49.7655490037 -1 90.0 120.0 3.0 6.5 90.0 120.0 True 4.0 180.0 120.0 3.0 3.0 -2740.28443961 2.69221186638
135 267.159144076 112.545097589 -1 90.0 120.0 3.0 6.5 90.0 120.0 False 4.0 180.0 120.0 2.5 3.0 -3085.34085592 3.7332649231
136 174.587133258 273.994544951 -1 90.0 120.0 3.0 6.5 90.0 120.0 True 4.0 180.0 120.0 2.0 3.0 -3047.41286674 4.47763490677
137 340.645737557 75.6259347433 1 90.0 120.0 3.0 6.5 90.0 120.0 True 4.0 180.0 120.0 3.0 3.0 3661.64573756 3.07544708252
138 7.31152466363 116.290237539 -1 90.0 120.0 3.0 6.5 90.0 120.0 False 4.0 180.0 120.0 2.25 3.0 -3205.68847534 3.97451686859
139 18.5454974228 302.676018981 1 90.0 120.0 3.0 6.5 90.0 120.0 True 4.0 180.0 120.0 2.0 3.0 3282.54549742 4.54106998444
140 21.8746947108 68.2349415347 -1 90.0 120.0 3.0 6.5 90.0 120.0 False 4.0 180.0 120.0 1.75 3.0 -2702.87530529 4.33264398575
141 107.276610183 207.915164531 1 90.0 120.0 3.0 6.5 90.0 120.0 True 4.0 180.0 120.0 1.0 3.0 1304.27661018 3.3323571682
142 355.246935949 55.2033513856 -1 90.0 120.0 3.0 6.5 90.0 120.0 False 4.0 180.0 120.0 3.25 3.0 -2911.00306405 2.79921388626
143 210.893580023 135.306254737 -1 90.0 120.0 3.0 6.5 90.0 120.0 False 4.0 180.0 120.0 0.75 3.0 -758.856419977 3.59929609299
144 265.075902942 283.47223861 -1 90.0 120.0 3.0 6.5 90.0 120.0 False 4.0 180.0 120.0 2.75 3.0 -1921.17409706 2.21614909172
