trial angleIni angleLandmark direction durationRampingIni durationFinal sizeLandmark radiusLandmark durationRampingFinal durationIni same radius duration durationRampingLand freq size response responseTime
1 213.242240853 208.672100717 -1 90.0 120.0 3.0 6.5 90.0 120.0 True 4.0 180.0 120.0 0.75 3.0 -655.257759147 3.21815419197
2 271.982130267 207.549484026 1 90.0 120.0 3.0 6.5 90.0 120.0 True 4.0 180.0 120.0 1.75 3.0 2240.73213027 3.13225102425
3 288.543649675 136.543842003 1 90.0 120.0 3.0 6.5 90.0 120.0 True 4.0 180.0 120.0 1.0 3.0 1395.54364967 3.08184194565
4 273.892490751 323.981267804 -1 90.0 120.0 3.0 6.5 90.0 120.0 False 4.0 180.0 120.0 3.0 3.0 -2264.10750925 2.35272312164
5 310.713241698 240.402135525 -1 90.0 120.0 3.0 6.5 90.0 120.0 True 4.0 180.0 120.0 1.25 3.0 -1556.7867583 4.15142798424
6 359.711419265 190.233243256 -1 90.0 120.0 3.0 6.5 90.0 120.0 False 4.0 180.0 120.0 2.25 3.0 -1530.28858074 2.33631682396
7 60.9586775074 328.893043434 1 90.0 120.0 3.0 6.5 90.0 120.0 True 4.0 180.0 120.0 1.5 3.0 1932.95867751 3.47426700592
8 147.26461817 93.7536893525 -1 90.0 120.0 3.0 6.5 90.0 120.0 True 4.0 180.0 120.0 1.0 3.0 -779.73538183 2.57737207413
9 319.859051416 109.182801804 1 90.0 120.0 3.0 6.5 90.0 120.0 True 4.0 180.0 120.0 1.25 3.0 1714.85905142 3.10806202888
10 78.6988383192 263.86539966 1 90.0 120.0 3.0 6.5 90.0 120.0 True 4.0 180.0 120.0 2.5 3.0 2118.69883832 2.27404594421
11 294.347738807 286.800444323 -1 90.0 120.0 3.0 6.5 90.0 120.0 True 4.0 180.0 120.0 1.5 3.0 -1330.15226119 3.01598596573
12 240.912426737 355.560145192 1 90.0 120.0 3.0 6.5 90.0 120.0 True 4.0 180.0 120.0 3.25 3.0 2853.91242674 2.24140381813
13 354.209345025 186.824665543 -1 90.0 120.0 3.0 6.5 90.0 120.0 False 4.0 180.0 120.0 0.75 3.0 -341.040654975 2.58278107643
14 305.31863755 327.415736897 1 90.0 120.0 3.0 6.5 90.0 120.0 True 4.0 180.0 120.0 2.25 3.0 3309.06863755 3.71640205383
15 22.5050079171 99.971926989 -1 90.0 120.0 3.0 6.5 90.0 120.0 True 4.0 180.0 120.0 2.25 3.0 -3055.49499208 3.80666708946
16 261.341419913 150.960978887 -1 90.0 120.0 3.0 6.5 90.0 120.0 True 4.0 180.0 120.0 2.75 3.0 -2964.40858009 3.26603007317
17 115.363463429 86.3942395232 1 90.0 120.0 3.0 6.5 90.0 120.0 False 4.0 180.0 120.0 2.5 3.0 4172.86346343 4.5109269619
18 230.947356088 323.8222201 1 90.0 120.0 3.0 6.5 90.0 120.0 False 4.0 180.0 120.0 1.75 3.0 3176.19735609 4.68273186684
19 222.010189072 226.390203248 1 90.0 120.0 3.0 6.5 90.0 120.0 False 4.0 180.0 120.0 1.25 3.0 1665.76018907 3.21547913551
20 89.587893574 16.9502347609 -1 90.0 120.0 3.0 6.5 90.0 120.0 False 4.0 180.0 120.0 1.5 3.0 -2632.91210643 5.04899907112
21 109.756370938 208.93050307 -1 90.0 120.0 3.0 6.5 90.0 120.0 True 4.0 180.0 120.0 2.5 3.0 -3632.74362906 4.16639304161
22 125.838190155 97.9216244488 1 90.0 120.0 3.0 6.5 90.0 120.0 False 4.0 180.0 120.0 0.75 3.0 985.338190155 3.1911239624
23 98.3025045099 155.508658639 -1 90.0 120.0 3.0 6.5 90.0 120.0 False 4.0 180.0 120.0 2.75 3.0 -4150.44749549 4.29291892052
24 22.6122561035 115.996768388 1 90.0 120.0 3.0 6.5 90.0 120.0 True 4.0 180.0 120.0 3.5 3.0 3099.1122561 2.44924092293
25 209.432580161 34.7529893843 1 90.0 120.0 3.0 6.5 90.0 120.0 True 4.0 180.0 120.0 0.75 3.0 906.932580161 2.59089803696
26 225.232712562 8.97695543589 -1 90.0 120.0 3.0 6.5 90.0 120.0 True 4.0 180.0 120.0 3.5 3.0 -2693.76728744 2.3251478672
27 297.23377819 292.371139186 -1 90.0 120.0 3.0 6.5 90.0 120.0 True 4.0 180.0 120.0 3.25 3.0 -2403.51622181 2.31027007103
28 79.8070489212 356.620061606 1 90.0 120.0 3.0 6.5 90.0 120.0 False 4.0 180.0 120.0 3.5 3.0 2967.30704892 2.29407191277
29 160.646637004 66.4140144889 1 90.0 120.0 3.0 6.5 90.0 120.0 True 4.0 180.0 120.0 3.0 3.0 2716.646637 2.37416887283
30 33.1523243583 283.605183421 -1 90.0 120.0 3.0 6.5 90.0 120.0 False 4.0 180.0 120.0 2.5 3.0 -3049.34767564 3.43246412277
31 195.886523318 23.7885383595 -1 90.0 120.0 3.0 6.5 90.0 120.0 False 4.0 180.0 120.0 1.75 3.0 -2114.11347668 3.6693508625
32 16.3051957094 253.608227734 1 90.0 120.0 3.0 6.5 90.0 120.0 False 4.0 180.0 120.0 3.25 3.0 2726.80519571 2.32323718071
33 299.839443538 149.53643898 1 90.0 120.0 3.0 6.5 90.0 120.0 True 4.0 180.0 120.0 2.75 3.0 3723.58944354 3.46618700027
34 149.552588008 129.865251419 1 90.0 120.0 3.0 6.5 90.0 120.0 True 4.0 180.0 120.0 2.0 3.0 3809.55258801 5.08511805534
35 262.069524099 65.4536555896 1 90.0 120.0 3.0 6.5 90.0 120.0 False 4.0 180.0 120.0 2.0 3.0 3838.0695241 4.97543096542
36 194.291844743 244.913072304 -1 90.0 120.0 3.0 6.5 90.0 120.0 False 4.0 180.0 120.0 1.25 3.0 -1001.95815526 2.66081905365
37 81.2515060748 116.90390286 -1 90.0 120.0 3.0 6.5 90.0 120.0 True 4.0 180.0 120.0 2.0 3.0 -2108.74849393 3.04334402084
38 171.197017653 304.890190137 1 90.0 120.0 3.0 6.5 90.0 120.0 False 4.0 180.0 120.0 3.0 3.0 2565.19701765 2.2243180275
39 86.9732339529 83.2308002725 -1 90.0 120.0 3.0 6.5 90.0 120.0 False 4.0 180.0 120.0 3.5 3.0 -2601.02676605 2.14186501503
40 326.282522933 257.226254214 -1 90.0 120.0 3.0 6.5 90.0 120.0 False 4.0 180.0 120.0 1.0 3.0 -795.717477067 3.12440299988
41 207.222416594 268.76307672 1 90.0 120.0 3.0 6.5 90.0 120.0 False 4.0 180.0 120.0 2.25 3.0 2205.22241659 2.46883583069
42 273.560558596 302.508549947 -1 90.0 120.0 3.0 6.5 90.0 120.0 False 4.0 180.0 120.0 3.25 3.0 -2290.6894414 2.20020699501
43 166.644481841 289.235147949 1 90.0 120.0 3.0 6.5 90.0 120.0 False 4.0 180.0 120.0 1.5 3.0 1525.64448184 2.5253469944
44 135.958567508 98.8696363486 -1 90.0 120.0 3.0 6.5 90.0 120.0 False 4.0 180.0 120.0 2.0 3.0 -2342.04143249 3.44192814827
45 209.82563861 89.8006761735 1 90.0 120.0 3.0 6.5 90.0 120.0 False 4.0 180.0 120.0 1.0 3.0 1133.82563861 2.57423686981
46 15.3812555963 182.661126777 -1 90.0 120.0 3.0 6.5 90.0 120.0 True 4.0 180.0 120.0 3.0 3.0 -2414.6187444 2.2511370182
47 117.936783744 261.019468965 -1 90.0 120.0 3.0 6.5 90.0 120.0 True 4.0 180.0 120.0 1.75 3.0 -2066.06321626 3.474421978
48 2.74239858657 303.579096543 1 90.0 120.0 3.0 6.5 90.0 120.0 False 4.0 180.0 120.0 2.75 3.0 2172.49239859 2.19962406158
49 201.984912743 330.68599542 1 90.0 120.0 3.0 6.5 90.0 120.0 True 4.0 180.0 120.0 2.5 3.0 2301.98491274 2.34054899216
50 162.891007294 234.919608437 1 90.0 120.0 3.0 6.5 90.0 120.0 False 4.0 180.0 120.0 1.5 3.0 1481.39100729 2.44929504395
51 292.581979218 28.5618000118 1 90.0 120.0 3.0 6.5 90.0 120.0 True 4.0 180.0 120.0 2.75 3.0 2429.33197922 2.16544699669
52 265.217451869 167.592645362 1 90.0 120.0 3.0 6.5 90.0 120.0 False 4.0 180.0 120.0 1.25 3.0 1742.71745187 3.29198718071
53 274.091869508 340.747213173 -1 90.0 120.0 3.0 6.5 90.0 120.0 True 4.0 180.0 120.0 1.25 3.0 -1270.90813049 3.43474292755
54 270.253385437 93.8503256204 1 90.0 120.0 3.0 6.5 90.0 120.0 True 4.0 180.0 120.0 2.25 3.0 2059.00338544 2.21629476547
55 124.505553821 344.714979939 1 90.0 120.0 3.0 6.5 90.0 120.0 False 4.0 180.0 120.0 1.75 3.0 3342.75555382 5.11677598953
56 240.044246397 296.228292405 -1 90.0 120.0 3.0 6.5 90.0 120.0 False 4.0 180.0 120.0 2.75 3.0 -2333.9557536 2.60158896446
57 15.1381000286 288.136054561 1 90.0 120.0 3.0 6.5 90.0 120.0 False 4.0 180.0 120.0 0.75 3.0 975.888100029 3.56664896011
58 244.475408568 139.02165598 1 90.0 120.0 3.0 6.5 90.0 120.0 True 4.0 180.0 120.0 1.75 3.0 3147.72540857 4.6160838604
59 34.3228462324 353.781363433 -1 90.0 120.0 3.0 6.5 90.0 120.0 False 4.0 180.0 120.0 0.75 3.0 -703.677153768 2.74202990532
60 97.6917126304 276.908244879 1 90.0 120.0 3.0 6.5 90.0 120.0 True 4.0 180.0 120.0 0.75 3.0 968.44171263 3.23360300064
61 306.584227558 201.061598143 1 90.0 120.0 3.0 6.5 90.0 120.0 False 4.0 180.0 120.0 1.0 3.0 1425.58422756 3.11708903313
62 138.745036141 349.88632853 1 90.0 120.0 3.0 6.5 90.0 120.0 True 4.0 180.0 120.0 1.5 3.0 2586.74503614 4.54068398476
63 156.45931126 314.082674497 -1 90.0 120.0 3.0 6.5 90.0 120.0 False 4.0 180.0 120.0 2.0 3.0 -1529.54068874 2.34390211105
64 159.192422827 169.40792269 -1 90.0 120.0 3.0 6.5 90.0 120.0 True 4.0 180.0 120.0 3.5 3.0 -2570.80757717 2.1676170826
65 273.545759128 73.9202676814 -1 90.0 120.0 3.0 6.5 90.0 120.0 True 4.0 180.0 120.0 1.5 3.0 -2066.45424087 4.33571386337
66 38.623524197 134.318969226 1 90.0 120.0 3.0 6.5 90.0 120.0 False 4.0 180.0 120.0 3.0 3.0 2531.6235242 2.31537103653
67 296.632155781 230.769548952 -1 90.0 120.0 3.0 6.5 90.0 120.0 False 4.0 180.0 120.0 1.0 3.0 -798.367844219 3.04933214188
68 265.76746312 143.851739228 -1 90.0 120.0 3.0 6.5 90.0 120.0 True 4.0 180.0 120.0 0.75 3.0 -379.98253688 2.39834403992
69 227.555548969 283.973578865 -1 90.0 120.0 3.0 6.5 90.0 120.0 True 4.0 180.0 120.0 2.75 3.0 -2560.94445103 2.82374095917
70 45.143260106 263.106884554 -1 90.0 120.0 3.0 6.5 90.0 120.0 True 4.0 180.0 120.0 2.5 3.0 -2317.35673989 2.63331508636
71 119.448923475 17.3851679008 -1 90.0 120.0 3.0 6.5 90.0 120.0 False 4.0 180.0 120.0 3.0 3.0 -2274.55107653 2.22513890266
72 347.154848448 195.495597598 1 90.0 120.0 3.0 6.5 90.0 120.0 True 4.0 180.0 120.0 3.5 3.0 3234.65484845 2.29922199249
73 146.819065966 216.394796773 -1 90.0 120.0 3.0 6.5 90.0 120.0 False 4.0 180.0 120.0 2.25 3.0 -2634.18093403 3.4410970211
74 38.6663841278 257.982402525 1 90.0 120.0 3.0 6.5 90.0 120.0 True 4.0 180.0 120.0 2.0 3.0 3104.66638413 4.2659330368
75 92.4864148414 221.81314221 -1 90.0 120.0 3.0 6.5 90.0 120.0 True 4.0 180.0 120.0 2.0 3.0 -2325.51358516 3.35866189003
76 357.554456857 151.453039998 -1 90.0 120.0 3.0 6.5 90.0 120.0 False 4.0 180.0 120.0 1.25 3.0 -1277.44554314 3.64157295227
77 325.262270548 255.571730517 -1 90.0 120.0 3.0 6.5 90.0 120.0 False 4.0 180.0 120.0 3.5 3.0 -2520.23772945 2.26668286324
78 21.2972512429 79.1032251545 1 90.0 120.0 3.0 6.5 90.0 120.0 True 4.0 180.0 120.0 3.0 3.0 2415.29725124 2.22534704208
79 120.817766773 331.945095626 1 90.0 120.0 3.0 6.5 90.0 120.0 False 4.0 180.0 120.0 3.25 3.0 2733.81776677 2.23973298073
80 260.263253867 355.801023953 -1 90.0 120.0 3.0 6.5 90.0 120.0 False 4.0 180.0 120.0 1.5 3.0 -2516.23674613 5.14966106415
81 285.374440595 312.008734049 -1 90.0 120.0 3.0 6.5 90.0 120.0 True 4.0 180.0 120.0 3.0 3.0 -2081.6255594 2.19974088669
82 147.522558118 312.779253697 1 90.0 120.0 3.0 6.5 90.0 120.0 False 4.0 180.0 120.0 2.25 3.0 2300.77255812 2.6661939621
83 111.254001405 71.0820955558 1 90.0 120.0 3.0 6.5 90.0 120.0 True 4.0 180.0 120.0 1.0 3.0 1128.25400141 2.83365893364
84 351.861778671 61.2863095525 -1 90.0 120.0 3.0 6.5 90.0 120.0 True 4.0 180.0 120.0 1.75 3.0 -2068.38822133 3.84928703308
85 31.5147033689 205.395062059 1 90.0 120.0 3.0 6.5 90.0 120.0 False 4.0 180.0 120.0 3.5 3.0 2824.51470337 2.22461509705
86 272.145702219 200.388905185 -1 90.0 120.0 3.0 6.5 90.0 120.0 True 4.0 180.0 120.0 3.25 3.0 -2487.10429778 2.36591506004
87 210.504846227 330.647276515 -1 90.0 120.0 3.0 6.5 90.0 120.0 False 4.0 180.0 120.0 2.5 3.0 -1881.99515377 2.33315706253
88 349.473355706 29.113327833 1 90.0 120.0 3.0 6.5 90.0 120.0 True 4.0 180.0 120.0 1.25 3.0 1451.97335571 2.45702314377
89 150.033761991 312.062747955 1 90.0 120.0 3.0 6.5 90.0 120.0 False 4.0 180.0 120.0 2.75 3.0 2394.03376199 2.26945614815
90 261.319788605 236.021490035 -1 90.0 120.0 3.0 6.5 90.0 120.0 False 4.0 180.0 120.0 1.75 3.0 -2069.6802114 3.70057010651
91 314.265109629 204.757718093 1 90.0 120.0 3.0 6.5 90.0 120.0 True 4.0 180.0 120.0 3.25 3.0 2839.51510963 2.16548514366
92 215.506795051 43.9298302804 -1 90.0 120.0 3.0 6.5 90.0 120.0 False 4.0 180.0 120.0 3.25 3.0 -2446.24320495 2.27669596672
93 174.890809418 151.557524076 -1 90.0 120.0 3.0 6.5 90.0 120.0 True 4.0 180.0 120.0 1.0 3.0 -914.109190582 3.03328299522
94 201.171954649 68.4278406438 1 90.0 120.0 3.0 6.5 90.0 120.0 False 4.0 180.0 120.0 2.5 3.0 2766.17195465 2.85752010345
95 240.329350496 85.0653989736 -1 90.0 120.0 3.0 6.5 90.0 120.0 True 4.0 180.0 120.0 2.25 3.0 -3613.9206495 4.76645112038
96 51.829930982 172.165232522 1 90.0 120.0 3.0 6.5 90.0 120.0 False 4.0 180.0 120.0 2.0 3.0 3063.82993098 4.19136404991
97 29.9020276071 112.001263623 -1 90.0 120.0 3.0 6.5 90.0 120.0 False 4.0 180.0 120.0 2.0 3.0 -2694.09797239 3.79109716415
98 334.776110105 141.231573089 -1 90.0 120.0 3.0 6.5 90.0 120.0 False 4.0 180.0 120.0 3.0 3.0 -2311.22388989 2.45129799843
99 88.042428378 119.971218653 1 90.0 120.0 3.0 6.5 90.0 120.0 True 4.0 180.0 120.0 3.25 3.0 2769.29242838 2.30004811287
100 202.9783902 283.181645501 1 90.0 120.0 3.0 6.5 90.0 120.0 False 4.0 180.0 120.0 0.75 3.0 976.9783902 2.87524700165
101 292.833880289 236.674648095 1 90.0 120.0 3.0 6.5 90.0 120.0 False 4.0 180.0 120.0 3.5 3.0 3043.83388029 2.19195723534
102 33.7594381016 93.4759847121 1 90.0 120.0 3.0 6.5 90.0 120.0 True 4.0 180.0 120.0 0.75 3.0 954.009438102 3.40960979462
103 132.46755413 4.44066319007 -1 90.0 120.0 3.0 6.5 90.0 120.0 True 4.0 180.0 120.0 2.5 3.0 -3010.03244587 3.4994969368
104 197.726305062 115.663116932 -1 90.0 120.0 3.0 6.5 90.0 120.0 False 4.0 180.0 120.0 3.25 3.0 -2454.27369494 2.2750120163
105 212.321681029 78.8822454143 1 90.0 120.0 3.0 6.5 90.0 120.0 False 4.0 180.0 120.0 2.75 3.0 2604.82168103 2.41796207428
106 227.616582753 276.438544899 -1 90.0 120.0 3.0 6.5 90.0 120.0 False 4.0 180.0 120.0 1.25 3.0 -1324.88341725 3.4584569931
107 51.4286190349 173.557638471 -1 90.0 120.0 3.0 6.5 90.0 120.0 False 4.0 180.0 120.0 1.75 3.0 -2211.32138097 3.59840297699
108 90.4504460511 198.872267199 1 90.0 120.0 3.0 6.5 90.0 120.0 True 4.0 180.0 120.0 3.5 3.0 2967.45044605 2.29139018059
109 97.5823998746 248.853911439 -1 90.0 120.0 3.0 6.5 90.0 120.0 True 4.0 180.0 120.0 0.75 3.0 -633.667600125 2.71693992615
110 243.130664382 150.649169425 1 90.0 120.0 3.0 6.5 90.0 120.0 True 4.0 180.0 120.0 2.5 3.0 3250.63066438 3.3498980999
111 296.646760842 70.794614525 1 90.0 120.0 3.0 6.5 90.0 120.0 True 4.0 180.0 120.0 2.75 3.0 2540.64676084 2.27409815788
112 264.328282202 204.660377491 -1 90.0 120.0 3.0 6.5 90.0 120.0 True 4.0 180.0 120.0 1.75 3.0 -2770.1717178 4.81865096092
113 192.744380147 147.742518331 -1 90.0 120.0 3.0 6.5 90.0 120.0 True 4.0 180.0 120.0 2.0 3.0 -1391.25561985 2.20156908035
114 238.420872071 10.3180675764 1 90.0 120.0 3.0 6.5 90.0 120.0 False 4.0 180.0 120.0 1.25 3.0 2147.17087207 4.24899196625
115 264.207912424 253.374362541 -1 90.0 120.0 3.0 6.5 90.0 120.0 False 4.0 180.0 120.0 3.5 3.0 -2528.79208758 2.22520589828
116 228.663662642 224.711896023 1 90.0 120.0 3.0 6.5 90.0 120.0 True 4.0 180.0 120.0 1.25 3.0 1811.16366264 3.52411413193
117 129.391846497 258.767496222 1 90.0 120.0 3.0 6.5 90.0 120.0 True 4.0 180.0 120.0 2.25 3.0 2019.3918465 2.34206485748
118 140.08177218 262.275282705 -1 90.0 120.0 3.0 6.5 90.0 120.0 True 4.0 180.0 120.0 3.25 3.0 -2365.66822782 2.14415383339
119 298.24610619 289.116616804 -1 90.0 120.0 3.0 6.5 90.0 120.0 True 4.0 180.0 120.0 3.0 3.0 -2131.75389381 2.25767993927
120 158.836400817 179.669925763 1 90.0 120.0 3.0 6.5 90.0 120.0 True 4.0 180.0 120.0 2.0 3.0 3170.83640082 4.18447899818
121 331.90431274 128.799864335 1 90.0 120.0 3.0 6.5 90.0 120.0 False 4.0 180.0 120.0 2.5 3.0 2484.40431274 2.39894008636
122 144.833778641 186.946901042 -1 90.0 120.0 3.0 6.5 90.0 120.0 True 4.0 180.0 120.0 1.25 3.0 -1235.16622136 3.07430696487
123 304.698573282 236.550303055 -1 90.0 120.0 3.0 6.5 90.0 120.0 False 4.0 180.0 120.0 2.25 3.0 -3617.05142672 4.84908604622
124 203.528088366 122.136442511 -1 90.0 120.0 3.0 6.5 90.0 120.0 False 4.0 180.0 120.0 0.75 3.0 -408.471911634 2.27484083176
125 189.628632564 191.062525843 1 90.0 120.0 3.0 6.5 90.0 120.0 False 4.0 180.0 120.0 3.25 3.0 2792.87863256 2.23254394531
126 147.673510886 158.020764333 1 90.0 120.0 3.0 6.5 90.0 120.0 False 4.0 180.0 120.0 1.75 3.0 2678.17351089 4.0254099369
127 30.1357792416 334.93951624 1 90.0 120.0 3.0 6.5 90.0 120.0 False 4.0 180.0 120.0 1.5 3.0 2118.13577924 3.87326097488
128 128.854565753 85.0123145315 -1 90.0 120.0 3.0 6.5 90.0 120.0 True 4.0 180.0 120.0 3.5 3.0 -2695.64543425 2.24945902824
129 60.6656397539 28.3954052441 1 90.0 120.0 3.0 6.5 90.0 120.0 True 4.0 180.0 120.0 1.5 3.0 2180.16563975 3.92648506165
130 290.921813261 213.0581635 -1 90.0 120.0 3.0 6.5 90.0 120.0 False 4.0 180.0 120.0 1.5 3.0 -1734.07818674 3.75040197372
131 34.2461079526 188.953956063 -1 90.0 120.0 3.0 6.5 90.0 120.0 True 4.0 180.0 120.0 1.0 3.0 -871.753892047 2.51892900467
132 205.228838099 326.568033956 1 90.0 120.0 3.0 6.5 90.0 120.0 True 4.0 180.0 120.0 1.0 3.0 1372.2288381 3.24845314026
133 357.400715583 92.3908173742 1 90.0 120.0 3.0 6.5 90.0 120.0 False 4.0 180.0 120.0 2.25 3.0 2240.65071558 2.32748794556
134 198.309028257 148.067132299 1 90.0 120.0 3.0 6.5 90.0 120.0 False 4.0 180.0 120.0 2.0 3.0 2610.30902826 3.35124802589
135 57.3318972505 40.2474805543 -1 90.0 120.0 3.0 6.5 90.0 120.0 True 4.0 180.0 120.0 2.75 3.0 -2302.16810275 2.39096713066
136 80.8047818407 110.777371025 -1 90.0 120.0 3.0 6.5 90.0 120.0 False 4.0 180.0 120.0 2.5 3.0 -1899.19521816 2.2067091465
137 203.948501632 357.349228467 -1 90.0 120.0 3.0 6.5 90.0 120.0 False 4.0 180.0 120.0 1.0 3.0 -891.051498368 3.04919099808
138 337.452676483 291.760116572 -1 90.0 120.0 3.0 6.5 90.0 120.0 True 4.0 180.0 120.0 1.5 3.0 -1678.54732352 3.73390197754
139 213.499405215 325.982003148 1 90.0 120.0 3.0 6.5 90.0 120.0 True 4.0 180.0 120.0 3.0 3.0 2553.49940522 2.17543697357
140 32.5413000645 150.958606671 -1 90.0 120.0 3.0 6.5 90.0 120.0 True 4.0 180.0 120.0 2.25 3.0 -2896.95869994 3.62396907806
141 57.2656417218 340.977998934 1 90.0 120.0 3.0 6.5 90.0 120.0 True 4.0 180.0 120.0 1.75 3.0 3338.51564172 5.21555900574
142 2.75845884055 21.6091001664 1 90.0 120.0 3.0 6.5 90.0 120.0 False 4.0 180.0 120.0 3.0 3.0 2324.75845884 2.15766215324
143 231.902007916 108.274675895 -1 90.0 120.0 3.0 6.5 90.0 120.0 False 4.0 180.0 120.0 2.75 3.0 -2028.59799208 2.28487896919
144 309.156477832 118.861868702 1 90.0 120.0 3.0 6.5 90.0 120.0 False 4.0 180.0 120.0 1.0 3.0 1707.15647783 3.88546490669
