trial angleIni angleLandmark direction durationRampingIni durationFinal sizeLandmark radiusLandmark durationRampingFinal durationIni same radius duration durationRampingLand freq size response responseTime
1 238.161543484 189.890488283 1 90.0 120.0 3.0 6.5 90.0 120.0 False 4.0 180.0 120.0 2.5 3.0 5615.66154348 5.98651599884
2 221.639763048 300.950938773 1 90.0 120.0 3.0 6.5 90.0 120.0 True 4.0 180.0 120.0 1.75 3.0 221.639763048 0.0
3 189.792405691 50.9589797207 1 90.0 120.0 3.0 6.5 90.0 120.0 True 4.0 180.0 120.0 2.5 3.0 3917.29240569 4.14963412285
4 310.61928177 113.159777661 -1 90.0 120.0 3.0 6.5 90.0 120.0 False 4.0 180.0 120.0 1.25 3.0 -1628.13071823 4.31691098213
5 130.176022424 358.209734635 -1 90.0 120.0 3.0 6.5 90.0 120.0 False 4.0 180.0 120.0 2.0 3.0 -3637.82397758 5.24088597298
6 227.926915653 224.636234417 1 90.0 120.0 3.0 6.5 90.0 120.0 False 4.0 180.0 120.0 1.25 3.0 1607.92691565 3.06894898415
7 147.964635593 230.752754446 -1 90.0 120.0 3.0 6.5 90.0 120.0 False 4.0 180.0 120.0 0.75 3.0 -801.535364407 3.52321386337
8 265.851050808 68.0146196 1 90.0 120.0 3.0 6.5 90.0 120.0 False 4.0 180.0 120.0 1.5 3.0 2763.35105081 4.63367605209
9 25.5898310406 194.596109362 1 90.0 120.0 3.0 6.5 90.0 120.0 True 4.0 180.0 120.0 1.25 3.0 1773.08983104 3.88470411301
10 144.820587089 86.1362647449 -1 90.0 120.0 3.0 6.5 90.0 120.0 True 4.0 180.0 120.0 2.5 3.0 -2405.17941291 2.83537316322
11 181.735599629 165.591763083 -1 90.0 120.0 3.0 6.5 90.0 120.0 True 4.0 180.0 120.0 2.75 3.0 -2986.26440037 3.20756196976
12 124.202175451 223.166402447 1 90.0 120.0 3.0 6.5 90.0 120.0 False 4.0 180.0 120.0 0.75 3.0 893.702175451 2.851375103
13 359.922645842 119.403667838 -1 90.0 120.0 3.0 6.5 90.0 120.0 False 4.0 180.0 120.0 2.5 3.0 -2422.57735416 3.09972405434
14 81.0052925067 122.376368387 1 90.0 120.0 3.0 6.5 90.0 120.0 False 4.0 180.0 120.0 1.0 3.0 1686.00529251 4.46575284004
15 344.301568771 85.0136701026 1 90.0 120.0 3.0 6.5 90.0 120.0 True 4.0 180.0 120.0 1.0 3.0 1652.30156877 3.63405609131
16 283.279437087 119.841848804 -1 90.0 120.0 3.0 6.5 90.0 120.0 True 4.0 180.0 120.0 2.0 3.0 9999 9999
17 86.0313305379 131.056011339 1 90.0 120.0 3.0 6.5 90.0 120.0 True 4.0 180.0 120.0 2.25 3.0 2853.53133054 3.4190530777
18 267.391485656 139.52857657 -1 90.0 120.0 3.0 6.5 90.0 120.0 False 4.0 180.0 120.0 1.75 3.0 -1759.10851434 3.21845602989
19 319.427178814 346.577405073 1 90.0 120.0 3.0 6.5 90.0 120.0 True 4.0 180.0 120.0 2.0 3.0 2617.42717881 3.19947004318
20 51.8222851498 197.383781265 -1 90.0 120.0 3.0 6.5 90.0 120.0 True 4.0 180.0 120.0 1.5 3.0 -1869.67771485 3.56557917595
21 281.772145373 253.34374119 1 90.0 120.0 3.0 6.5 90.0 120.0 True 4.0 180.0 120.0 2.75 3.0 3194.02214537 2.94948601723
22 18.1578064981 302.291102553 1 90.0 120.0 3.0 6.5 90.0 120.0 False 4.0 180.0 120.0 2.25 3.0 4243.6578065 5.21893382072
23 246.466074163 168.92302617 -1 90.0 120.0 3.0 6.5 90.0 120.0 True 4.0 180.0 120.0 0.75 3.0 -867.283925837 4.13203001022
24 254.752001905 142.579821159 1 90.0 120.0 3.0 6.5 90.0 120.0 False 4.0 180.0 120.0 2.75 3.0 3183.5020019 2.96524906158
25 208.779985088 312.553131719 1 90.0 120.0 3.0 6.5 90.0 120.0 False 4.0 180.0 120.0 2.0 3.0 3586.77998509 4.6986720562
26 232.016600891 204.126979684 1 90.0 120.0 3.0 6.5 90.0 120.0 True 4.0 180.0 120.0 0.75 3.0 1417.76660089 4.3932929039
27 49.1849981919 308.570064284 1 90.0 120.0 3.0 6.5 90.0 120.0 True 4.0 180.0 120.0 1.5 3.0 2038.18499819 3.69003605843
28 358.116182335 343.998057828 -1 90.0 120.0 3.0 6.5 90.0 120.0 False 4.0 180.0 120.0 2.75 3.0 -3758.63381767 4.16548204422
29 289.749843475 303.645726461 -1 90.0 120.0 3.0 6.5 90.0 120.0 True 4.0 180.0 120.0 2.25 3.0 -4239.50015653 5.59964799881
30 302.701302391 154.246224791 1 90.0 120.0 3.0 6.5 90.0 120.0 False 4.0 180.0 120.0 1.75 3.0 3006.45130239 4.29903912544
31 97.941376054 228.376247021 -1 90.0 120.0 3.0 6.5 90.0 120.0 False 4.0 180.0 120.0 1.5 3.0 -1711.05862395 3.35819005966
32 128.779761217 94.5021542626 -1 90.0 120.0 3.0 6.5 90.0 120.0 True 4.0 180.0 120.0 1.75 3.0 -2338.72023878 3.9248957634
33 178.642156578 77.4293634779 -1 90.0 120.0 3.0 6.5 90.0 120.0 True 4.0 180.0 120.0 1.0 3.0 -769.357843422 2.64092612267
34 52.9072070439 49.6411854595 -1 90.0 120.0 3.0 6.5 90.0 120.0 False 4.0 180.0 120.0 1.0 3.0 -1171.09279296 3.40083813667
35 211.97248223 75.018255932 -1 90.0 120.0 3.0 6.5 90.0 120.0 True 4.0 180.0 120.0 1.25 3.0 -1310.52751777 3.38472700119
36 219.278587011 44.4383283099 -1 90.0 120.0 3.0 6.5 90.0 120.0 False 4.0 180.0 120.0 2.25 3.0 -2710.22141299 3.62418699265
37 243.350017524 261.087212129 -1 90.0 120.0 3.0 6.5 90.0 120.0 True 4.0 180.0 120.0 2.75 3.0 -3147.39998248 3.43279695511
38 167.837816905 295.562986019 1 90.0 120.0 3.0 6.5 90.0 120.0 False 4.0 180.0 120.0 1.0 3.0 1484.83781691 3.66680216789
39 177.821313299 237.863915478 1 90.0 120.0 3.0 6.5 90.0 120.0 False 4.0 180.0 120.0 2.75 3.0 4261.5713133 4.12648105621
40 296.893396866 340.747982375 -1 90.0 120.0 3.0 6.5 90.0 120.0 False 4.0 180.0 120.0 1.25 3.0 -2118.10660313 5.36729001999
41 215.440103796 338.91543643 -1 90.0 120.0 3.0 6.5 90.0 120.0 True 4.0 180.0 120.0 1.5 3.0 -1953.5598962 4.0251698494
42 11.0684208813 297.814524568 1 90.0 120.0 3.0 6.5 90.0 120.0 True 4.0 180.0 120.0 2.0 3.0 2567.06842088 3.55745983124
43 3.49037721043 101.827177459 1 90.0 120.0 3.0 6.5 90.0 120.0 True 4.0 180.0 120.0 2.25 3.0 3337.99037721 4.12544393539
44 89.1776483319 345.371261817 1 90.0 120.0 3.0 6.5 90.0 120.0 False 4.0 180.0 120.0 2.0 3.0 1919.17764833 2.54359197617
45 192.445918197 8.40070063273 1 90.0 120.0 3.0 6.5 90.0 120.0 True 4.0 180.0 120.0 1.0 3.0 1893.4459182 4.72731304169
46 157.927023833 184.911589845 -1 90.0 120.0 3.0 6.5 90.0 120.0 False 4.0 180.0 120.0 2.75 3.0 -3818.57297617 4.0245320797
47 341.212537348 224.165206327 -1 90.0 120.0 3.0 6.5 90.0 120.0 True 4.0 180.0 120.0 2.25 3.0 -4059.78746265 5.44164395332
48 347.471592213 129.258406857 1 90.0 120.0 3.0 6.5 90.0 120.0 False 4.0 180.0 120.0 2.5 3.0 3617.47159221 3.6403439045
49 20.2795006952 146.927363547 -1 90.0 120.0 3.0 6.5 90.0 120.0 False 4.0 180.0 120.0 2.5 3.0 -3002.2204993 3.36612200737
50 272.844210549 169.80625841 -1 90.0 120.0 3.0 6.5 90.0 120.0 True 4.0 180.0 120.0 2.5 3.0 -2569.65578945 3.16571998596
51 272.954254969 339.279588047 -1 90.0 120.0 3.0 6.5 90.0 120.0 False 4.0 180.0 120.0 1.0 3.0 -1071.04574503 3.74085021019
52 81.6830415984 78.5085652702 -1 90.0 120.0 3.0 6.5 90.0 120.0 True 4.0 180.0 120.0 1.75 3.0 -2543.3169584 4.1734380722
53 278.807360204 327.734110587 -1 90.0 120.0 3.0 6.5 90.0 120.0 False 4.0 180.0 120.0 2.0 3.0 -2331.1926398 3.63287901878
54 81.0351040399 139.673646229 1 90.0 120.0 3.0 6.5 90.0 120.0 True 4.0 180.0 120.0 2.5 3.0 2796.03510404 3.02425193787
55 217.733458564 214.000236885 -1 90.0 120.0 3.0 6.5 90.0 120.0 True 4.0 180.0 120.0 0.75 3.0 -844.266541436 3.93995213509
56 111.084392537 131.607580104 1 90.0 120.0 3.0 6.5 90.0 120.0 False 4.0 180.0 120.0 2.25 3.0 3168.83439254 3.78291797638
57 154.585925488 305.26752025 -1 90.0 120.0 3.0 6.5 90.0 120.0 False 4.0 180.0 120.0 2.25 3.0 -3375.66407451 4.36689591408
58 147.539678428 60.8233357832 -1 90.0 120.0 3.0 6.5 90.0 120.0 True 4.0 180.0 120.0 1.25 3.0 -1689.96032157 4.08398103714
59 68.3366207985 210.985168428 1 90.0 120.0 3.0 6.5 90.0 120.0 False 4.0 180.0 120.0 1.5 3.0 2682.8366208 4.84996294975
60 115.784609795 15.2200906092 1 90.0 120.0 3.0 6.5 90.0 120.0 False 4.0 180.0 120.0 1.25 3.0 2302.0346098 4.85970187187
61 337.344023047 74.0631664839 -1 90.0 120.0 3.0 6.5 90.0 120.0 True 4.0 180.0 120.0 1.0 3.0 -1312.65597695 4.59144210815
62 336.363121051 209.628224581 -1 90.0 120.0 3.0 6.5 90.0 120.0 False 4.0 180.0 120.0 0.75 3.0 -644.636878949 3.64053797722
63 284.975508367 165.384619197 -1 90.0 120.0 3.0 6.5 90.0 120.0 False 4.0 180.0 120.0 1.5 3.0 -1947.02449163 4.14085793495
64 13.6037695132 101.10107718 1 90.0 120.0 3.0 6.5 90.0 120.0 False 4.0 180.0 120.0 0.75 3.0 954.103769513 3.49154400826
65 285.962076788 44.193671997 -1 90.0 120.0 3.0 6.5 90.0 120.0 True 4.0 180.0 120.0 2.0 3.0 -3344.03792321 5.04339694977
66 200.817675493 4.08270269601 -1 90.0 120.0 3.0 6.5 90.0 120.0 False 4.0 180.0 120.0 1.75 3.0 -2833.68232451 4.81923508644
67 25.4092838718 33.5108616265 1 90.0 120.0 3.0 6.5 90.0 120.0 True 4.0 180.0 120.0 2.75 3.0 3498.65928387 3.51584196091
68 297.147043848 304.97129462 1 90.0 120.0 3.0 6.5 90.0 120.0 True 4.0 180.0 120.0 0.75 3.0 1152.14704385 3.17418217659
69 296.714708761 180.396993456 1 90.0 120.0 3.0 6.5 90.0 120.0 False 4.0 180.0 120.0 1.75 3.0 3462.46470876 5.03379797935
70 358.380340971 185.199795806 1 90.0 120.0 3.0 6.5 90.0 120.0 True 4.0 180.0 120.0 1.5 3.0 2846.88034097 4.61056399345
71 82.919882208 319.029155157 1 90.0 120.0 3.0 6.5 90.0 120.0 True 4.0 180.0 120.0 1.25 3.0 2081.66988221 4.44403409958
72 142.250623088 169.211182187 1 90.0 120.0 3.0 6.5 90.0 120.0 True 4.0 180.0 120.0 1.75 3.0 9999 9999
73 52.3362782403 11.8732244595 1 90.0 120.0 3.0 6.5 90.0 120.0 True 4.0 180.0 120.0 1.0 3.0 109.33627824 0.166531085968
74 62.7497087383 137.019049347 1 90.0 120.0 3.0 6.5 90.0 120.0 False 4.0 180.0 120.0 2.5 3.0 2507.74970874 2.7254140377
75 253.088480967 331.032899479 1 90.0 120.0 3.0 6.5 90.0 120.0 True 4.0 180.0 120.0 0.75 3.0 1198.08848097 3.50710201263
76 274.779124033 126.300402813 1 90.0 120.0 3.0 6.5 90.0 120.0 False 4.0 180.0 120.0 2.75 3.0 3459.27912403 3.21741914749
77 343.599447075 135.02965071 1 90.0 120.0 3.0 6.5 90.0 120.0 False 4.0 180.0 120.0 0.75 3.0 1011.84944708 2.48254489899
78 246.352178302 68.6469192544 1 90.0 120.0 3.0 6.5 90.0 120.0 False 4.0 180.0 120.0 2.0 3.0 3000.3521783 3.82653212547
79 324.855446984 217.755155353 1 90.0 120.0 3.0 6.5 90.0 120.0 False 4.0 180.0 120.0 2.25 3.0 3267.85544698 3.63460206985
80 34.2218624756 5.29978312392 1 90.0 120.0 3.0 6.5 90.0 120.0 False 4.0 180.0 120.0 1.0 3.0 1399.22186248 3.79285907745
81 226.5703348 162.905438895 1 90.0 120.0 3.0 6.5 90.0 120.0 True 4.0 180.0 120.0 2.5 3.0 3744.0703348 3.91571497917
82 205.239702198 39.744353759 1 90.0 120.0 3.0 6.5 90.0 120.0 True 4.0 180.0 120.0 1.75 3.0 2819.7397022 4.15732192993
83 210.689749414 269.56924982 1 90.0 120.0 3.0 6.5 90.0 120.0 True 4.0 180.0 120.0 1.25 3.0 1793.18974941 3.52531003952
84 185.779280803 78.2240669066 1 90.0 120.0 3.0 6.5 90.0 120.0 True 4.0 180.0 120.0 2.75 3.0 4830.5292808 4.7000977993
85 7.29538752367 332.096490102 1 90.0 120.0 3.0 6.5 90.0 120.0 False 4.0 180.0 120.0 1.25 3.0 2264.79538752 5.02335119247
86 105.40156189 118.342898914 -1 90.0 120.0 3.0 6.5 90.0 120.0 True 4.0 180.0 120.0 2.25 3.0 -3708.34843811 4.71561694145
87 232.426662234 129.508260607 1 90.0 120.0 3.0 6.5 90.0 120.0 True 4.0 180.0 120.0 1.5 3.0 2905.42666223 4.9511039257
88 191.412127011 8.3382425787 -1 90.0 120.0 3.0 6.5 90.0 120.0 True 4.0 180.0 120.0 0.75 3.0 -1019.08787299 4.49150300026
89 209.027426735 239.015250105 1 90.0 120.0 3.0 6.5 90.0 120.0 False 4.0 180.0 120.0 1.5 3.0 2333.02742674 3.94155502319
90 166.238268312 173.298703516 -1 90.0 120.0 3.0 6.5 90.0 120.0 True 4.0 180.0 120.0 2.75 3.0 -3777.26173169 3.99095106125
91 303.68411492 174.721716573 -1 90.0 120.0 3.0 6.5 90.0 120.0 True 4.0 180.0 120.0 1.5 3.0 -2463.81588508 5.12744808197
92 152.976260092 293.00892838 -1 90.0 120.0 3.0 6.5 90.0 120.0 True 4.0 180.0 120.0 1.25 3.0 -1969.52373991 4.71923184395
93 183.035570801 92.4923075977 -1 90.0 120.0 3.0 6.5 90.0 120.0 False 4.0 180.0 120.0 2.5 3.0 -5044.4644292 5.81551599503
94 210.21040912 23.1087358133 -1 90.0 120.0 3.0 6.5 90.0 120.0 False 4.0 180.0 120.0 2.75 3.0 -3007.28959088 3.25867486
95 268.737685914 206.716972623 -1 90.0 120.0 3.0 6.5 90.0 120.0 False 4.0 180.0 120.0 1.25 3.0 -1355.01231409 3.6157720089
96 103.483426848 234.505899377 -1 90.0 120.0 3.0 6.5 90.0 120.0 False 4.0 180.0 120.0 2.0 3.0 -3628.51657315 5.19075679779
97 276.320234339 242.575784997 -1 90.0 120.0 3.0 6.5 90.0 120.0 True 4.0 180.0 120.0 1.75 3.0 -2752.92976566 4.8170030117
98 343.03359354 25.1730779799 -1 90.0 120.0 3.0 6.5 90.0 120.0 False 4.0 180.0 120.0 1.5 3.0 -2176.96640646 4.67501211166
99 235.276999492 299.241490362 1 90.0 120.0 3.0 6.5 90.0 120.0 False 4.0 180.0 120.0 1.75 3.0 2939.02699949 4.30011510849
100 319.584804895 273.936663221 -1 90.0 120.0 3.0 6.5 90.0 120.0 True 4.0 180.0 120.0 2.0 3.0 -2326.41519511 3.68153786659
101 142.853433614 8.06011293541 -1 90.0 120.0 3.0 6.5 90.0 120.0 False 4.0 180.0 120.0 0.75 3.0 -849.396566386 3.68275499344
102 117.304956383 311.581558144 -1 90.0 120.0 3.0 6.5 90.0 120.0 True 4.0 180.0 120.0 1.0 3.0 -1262.69504362 3.8412899971
103 20.3791989689 223.365704406 1 90.0 120.0 3.0 6.5 90.0 120.0 True 4.0 180.0 120.0 2.25 3.0 3395.37919897 4.17444610596
104 71.3779033969 229.971684762 -1 90.0 120.0 3.0 6.5 90.0 120.0 False 4.0 180.0 120.0 1.75 3.0 -2905.3720966 4.72578716278
105 64.342162963 237.859231566 -1 90.0 120.0 3.0 6.5 90.0 120.0 True 4.0 180.0 120.0 2.5 3.0 -3910.65783704 4.42372989655
106 286.034820888 186.404837951 -1 90.0 120.0 3.0 6.5 90.0 120.0 False 4.0 180.0 120.0 1.0 3.0 -1384.96517911 4.64990401268
107 159.569456363 242.958548573 -1 90.0 120.0 3.0 6.5 90.0 120.0 False 4.0 180.0 120.0 2.25 3.0 -3883.68054364 11.534099102
108 97.6210848964 29.5622643851 1 90.0 120.0 3.0 6.5 90.0 120.0 True 4.0 180.0 120.0 2.0 3.0 3511.6210849 4.74321818352
