trial angleIni angleLandmark direction durationRampingIni durationFinal sizeLandmark radiusLandmark durationRampingFinal durationIni same radius duration durationRampingLand freq size response responseTime
1 165.036882733 301.745806641 1 90.0 120.0 3.0 6.5 90.0 120.0 False 4.0 180.0 120.0 0.75 3.0 844.536882733 2.52768087387
2 185.818144344 319.906936863 1 90.0 120.0 3.0 6.5 90.0 120.0 False 4.0 180.0 120.0 2.5 3.0 2840.81814434 2.95870089531
3 72.2260453359 9.0908818352 -1 90.0 120.0 3.0 6.5 90.0 120.0 False 4.0 180.0 120.0 1.25 3.0 -1442.77395466 3.37375712395
4 39.8860692292 268.883221442 1 90.0 120.0 3.0 6.5 90.0 120.0 False 4.0 180.0 120.0 1.5 3.0 1956.88606923 3.55797600746
5 317.622148372 267.769289064 -1 90.0 120.0 3.0 6.5 90.0 120.0 True 4.0 180.0 120.0 2.75 3.0 -2693.62785163 3.0439889431
6 302.484552115 165.666098418 -1 90.0 120.0 3.0 6.5 90.0 120.0 True 4.0 180.0 120.0 2.25 3.0 -2620.26544789 3.61619901657
7 8.86086040246 242.507388517 -1 90.0 120.0 3.0 6.5 90.0 120.0 True 4.0 180.0 120.0 1.25 3.0 -1554.8891396 3.48263406754
8 314.480708235 280.441905779 -1 90.0 120.0 3.0 6.5 90.0 120.0 True 4.0 180.0 120.0 1.5 3.0 -1476.51929176 3.32394504547
9 200.038329129 270.044763302 1 90.0 120.0 3.0 6.5 90.0 120.0 False 4.0 180.0 120.0 1.0 3.0 1367.03832913 3.2426700592
10 211.67810037 229.249535964 1 90.0 120.0 3.0 6.5 90.0 120.0 False 4.0 180.0 120.0 2.0 3.0 2299.67810037 2.90751791
11 213.013541128 186.348560226 1 90.0 120.0 3.0 6.5 90.0 120.0 False 4.0 180.0 120.0 1.25 3.0 1488.01354113 2.84080314636
12 49.1583009287 269.939524662 -1 90.0 120.0 3.0 6.5 90.0 120.0 False 4.0 180.0 120.0 1.5 3.0 -2002.84169907 3.80138397217
13 17.8577449044 167.029140066 1 90.0 120.0 3.0 6.5 90.0 120.0 False 4.0 180.0 120.0 1.75 3.0 2002.3577449 3.15732383728
14 103.70830264 344.315553933 -1 90.0 120.0 3.0 6.5 90.0 120.0 True 4.0 180.0 120.0 1.0 3.0 -1066.29169736 3.25845813751
15 90.5154520803 30.1690154058 1 90.0 120.0 3.0 6.5 90.0 120.0 True 4.0 180.0 120.0 2.75 3.0 3926.76545208 3.88190484047
16 209.257080264 80.4661559268 -1 90.0 120.0 3.0 6.5 90.0 120.0 True 4.0 180.0 120.0 2.0 3.0 -2502.74291974 3.77414298058
17 25.9157999483 226.744006165 1 90.0 120.0 3.0 6.5 90.0 120.0 False 4.0 180.0 120.0 2.25 3.0 3137.66579995 3.84871888161
18 88.5243491568 294.225155053 1 90.0 120.0 3.0 6.5 90.0 120.0 True 4.0 180.0 120.0 1.25 3.0 1768.52434916 3.74176192284
19 214.833231275 55.1316581026 -1 90.0 120.0 3.0 6.5 90.0 120.0 False 4.0 180.0 120.0 2.75 3.0 -3439.91676873 3.69929504395
20 247.758707188 216.613695587 1 90.0 120.0 3.0 6.5 90.0 120.0 True 4.0 180.0 120.0 1.75 3.0 2447.50870719 3.49949216843
21 110.228838383 8.48653776787 1 90.0 120.0 3.0 6.5 90.0 120.0 False 4.0 180.0 120.0 2.75 3.0 3492.72883838 3.4254181385
22 293.738697709 33.9842098204 -1 90.0 120.0 3.0 6.5 90.0 120.0 True 4.0 180.0 120.0 2.5 3.0 -2803.76130229 3.44937086105
23 194.647171507 293.303058084 1 90.0 120.0 3.0 6.5 90.0 120.0 True 4.0 180.0 120.0 2.0 3.0 2732.64717151 3.53235006332
24 90.9044090684 294.808659426 -1 90.0 120.0 3.0 6.5 90.0 120.0 False 4.0 180.0 120.0 2.25 3.0 -2818.34559093 3.60024404526
25 159.550878621 196.289492634 -1 90.0 120.0 3.0 6.5 90.0 120.0 False 4.0 180.0 120.0 2.5 3.0 -3050.44912138 3.57494783401
26 44.8865603318 193.510507213 1 90.0 120.0 3.0 6.5 90.0 120.0 True 4.0 180.0 120.0 2.25 3.0 3284.88656033 4.00818109512
27 18.1346372801 156.660913792 -1 90.0 120.0 3.0 6.5 90.0 120.0 False 4.0 180.0 120.0 1.75 3.0 -2270.86536272 3.64199090004
28 89.114410495 230.310653574 -1 90.0 120.0 3.0 6.5 90.0 120.0 False 4.0 180.0 120.0 1.0 3.0 -1206.8855895 3.60709309578
29 171.998651535 147.936623956 -1 90.0 120.0 3.0 6.5 90.0 120.0 False 4.0 180.0 120.0 0.75 3.0 -741.501348465 3.39178800583
30 286.818773731 61.5157094009 1 90.0 120.0 3.0 6.5 90.0 120.0 True 4.0 180.0 120.0 1.5 3.0 2464.81877373 4.04048323631
31 147.683807512 272.39156944 1 90.0 120.0 3.0 6.5 90.0 120.0 True 4.0 180.0 120.0 2.5 3.0 3657.68380751 3.90810704231
32 159.25220334 326.735440379 -1 90.0 120.0 3.0 6.5 90.0 120.0 True 4.0 180.0 120.0 1.75 3.0 -2308.24779666 3.92328596115
33 236.52106784 20.4239663236 -1 90.0 120.0 3.0 6.5 90.0 120.0 True 4.0 180.0 120.0 0.75 3.0 -694.97893216 3.45744800568
34 305.895303383 51.2010750254 1 90.0 120.0 3.0 6.5 90.0 120.0 True 4.0 180.0 120.0 0.75 3.0 1289.14530338 3.64864587784
35 134.136435409 61.5571661537 1 90.0 120.0 3.0 6.5 90.0 120.0 True 4.0 180.0 120.0 1.0 3.0 1313.13643541 3.28308606148
36 232.159430977 152.548676449 -1 90.0 120.0 3.0 6.5 90.0 120.0 False 4.0 180.0 120.0 2.0 3.0 -2113.84056902 3.26601219177
37 357.317416909 139.582576707 1 90.0 120.0 3.0 6.5 90.0 120.0 False 4.0 180.0 120.0 2.0 3.0 2343.31741691 2.76704311371
38 348.766594652 116.468527001 -1 90.0 120.0 3.0 6.5 90.0 120.0 True 4.0 180.0 120.0 1.25 3.0 -1214.98340535 3.48382091522
39 303.466886418 175.392892454 -1 90.0 120.0 3.0 6.5 90.0 120.0 False 4.0 180.0 120.0 0.75 3.0 -538.033113582 3.1182179451
40 297.164850044 342.155747358 1 90.0 120.0 3.0 6.5 90.0 120.0 True 4.0 180.0 120.0 1.25 3.0 2040.91485004 3.88266205788
41 188.66401089 256.454370403 -1 90.0 120.0 3.0 6.5 90.0 120.0 False 4.0 180.0 120.0 1.0 3.0 -1032.33598911 3.40014386177
42 128.209269559 347.466574744 -1 90.0 120.0 3.0 6.5 90.0 120.0 False 4.0 180.0 120.0 2.0 3.0 -2223.79073044 3.2740278244
43 52.0612159274 42.75261264 -1 90.0 120.0 3.0 6.5 90.0 120.0 False 4.0 180.0 120.0 2.25 3.0 -3586.18878407 4.49341201782
44 206.492810075 351.904616411 -1 90.0 120.0 3.0 6.5 90.0 120.0 False 4.0 180.0 120.0 2.75 3.0 -2903.75718992 3.14940810204
45 127.615676695 245.610120111 1 90.0 120.0 3.0 6.5 90.0 120.0 False 4.0 180.0 120.0 1.25 3.0 1818.86567669 3.76616597176
46 197.066441688 150.316503903 1 90.0 120.0 3.0 6.5 90.0 120.0 False 4.0 180.0 120.0 1.5 3.0 2154.56644169 3.63337397575
47 9.75362194453 95.2755493114 -1 90.0 120.0 3.0 6.5 90.0 120.0 True 4.0 180.0 120.0 1.75 3.0 -2678.24637806 4.26863789558
48 111.591248416 41.1437069596 1 90.0 120.0 3.0 6.5 90.0 120.0 True 4.0 180.0 120.0 2.5 3.0 3636.59124842 3.91788315773
49 147.958575373 175.254606581 1 90.0 120.0 3.0 6.5 90.0 120.0 True 4.0 180.0 120.0 2.0 3.0 3471.95857537 4.62420797348
50 275.363200996 283.281012177 -1 90.0 120.0 3.0 6.5 90.0 120.0 True 4.0 180.0 120.0 2.25 3.0 -3099.636799 4.17418384552
51 191.353263101 133.682958279 -1 90.0 120.0 3.0 6.5 90.0 120.0 False 4.0 180.0 120.0 1.75 3.0 -3184.3967369 5.36558508873
52 140.6634762 228.696988508 -1 90.0 120.0 3.0 6.5 90.0 120.0 False 4.0 180.0 120.0 1.5 3.0 -2838.3365238 5.52428984642
53 12.4125436619 30.0842416212 -1 90.0 120.0 3.0 6.5 90.0 120.0 True 4.0 180.0 120.0 2.0 3.0 -2897.58745634 4.04843997955
54 179.248379452 177.683908108 -1 90.0 120.0 3.0 6.5 90.0 120.0 True 4.0 180.0 120.0 2.5 3.0 -2850.75162055 3.37429904938
55 180.41049392 354.282152064 1 90.0 120.0 3.0 6.5 90.0 120.0 True 4.0 180.0 120.0 0.75 3.0 1588.91049392 5.22500109673
56 331.643651107 102.42671839 1 90.0 120.0 3.0 6.5 90.0 120.0 False 4.0 180.0 120.0 2.75 3.0 4275.14365111 3.99087309837
57 205.71514816 264.589483181 -1 90.0 120.0 3.0 6.5 90.0 120.0 True 4.0 180.0 120.0 0.75 3.0 -606.53485184 3.01672101021
58 53.266867274 89.8168222701 -1 90.0 120.0 3.0 6.5 90.0 120.0 False 4.0 180.0 120.0 1.25 3.0 -1937.98313273 4.42629694939
59 138.365790546 154.373428022 1 90.0 120.0 3.0 6.5 90.0 120.0 False 4.0 180.0 120.0 0.75 3.0 1036.11579055 3.33236503601
60 104.49504546 182.969258381 1 90.0 120.0 3.0 6.5 90.0 120.0 False 4.0 180.0 120.0 1.0 3.0 1238.49504546 3.15719199181
61 212.034957365 122.847612509 -1 90.0 120.0 3.0 6.5 90.0 120.0 True 4.0 180.0 120.0 1.5 3.0 -2271.96504264 4.60268712044
62 196.622443295 182.732590246 1 90.0 120.0 3.0 6.5 90.0 120.0 False 4.0 180.0 120.0 1.75 3.0 2595.8724433 3.80929398537
63 108.619503893 126.980768662 1 90.0 120.0 3.0 6.5 90.0 120.0 False 4.0 180.0 120.0 2.25 3.0 3443.11950389 4.12375211716
64 131.445557631 137.547864071 1 90.0 120.0 3.0 6.5 90.0 120.0 True 4.0 180.0 120.0 2.25 3.0 3837.19555763 4.58375692368
65 307.71617634 201.39784645 1 90.0 120.0 3.0 6.5 90.0 120.0 True 4.0 180.0 120.0 2.75 3.0 4201.71617634 3.94048905373
66 216.076401489 329.307775209 -1 90.0 120.0 3.0 6.5 90.0 120.0 False 4.0 180.0 120.0 2.5 3.0 -3578.92359851 4.21729588509
67 301.601350793 185.640334691 1 90.0 120.0 3.0 6.5 90.0 120.0 False 4.0 180.0 120.0 2.5 3.0 4074.10135079 4.19280600548
68 17.3980508856 263.596293086 1 90.0 120.0 3.0 6.5 90.0 120.0 True 4.0 180.0 120.0 1.75 3.0 2904.89805089 4.58527898788
69 92.4900161769 81.0896034079 1 90.0 120.0 3.0 6.5 90.0 120.0 True 4.0 180.0 120.0 1.0 3.0 1523.49001618 3.98234796524
70 133.064803325 285.443690692 -1 90.0 120.0 3.0 6.5 90.0 120.0 True 4.0 180.0 120.0 2.75 3.0 -3241.18519668 3.40963196754
71 201.235987939 165.494463638 1 90.0 120.0 3.0 6.5 90.0 120.0 True 4.0 180.0 120.0 1.5 3.0 3022.73598794 5.23259997368
72 183.657235364 307.373561608 -1 90.0 120.0 3.0 6.5 90.0 120.0 True 4.0 180.0 120.0 1.0 3.0 -1472.34276464 4.60112595558
73 235.68351695 70.9533557119 1 90.0 120.0 3.0 6.5 90.0 120.0 True 4.0 180.0 120.0 2.25 3.0 3374.43351695 3.8831038475
74 280.966838991 45.672450189 -1 90.0 120.0 3.0 6.5 90.0 120.0 True 4.0 180.0 120.0 1.25 3.0 -1387.78316101 3.71593093872
75 264.046532597 98.3159789133 -1 90.0 120.0 3.0 6.5 90.0 120.0 False 4.0 180.0 120.0 2.0 3.0 -2003.9534674 3.15761899948
76 40.1744121467 247.878565947 1 90.0 120.0 3.0 6.5 90.0 120.0 True 4.0 180.0 120.0 1.0 3.0 1141.17441215 3.06621003151
77 283.704727788 294.015974971 1 90.0 120.0 3.0 6.5 90.0 120.0 True 4.0 180.0 120.0 2.75 3.0 3443.45472779 3.19898986816
78 100.585175453 255.106023607 -1 90.0 120.0 3.0 6.5 90.0 120.0 True 4.0 180.0 120.0 2.5 3.0 -3394.41482455 3.89069390297
79 80.8275824625 162.221143566 1 90.0 120.0 3.0 6.5 90.0 120.0 False 4.0 180.0 120.0 2.0 3.0 2180.82758246 2.92454195023
80 280.668742722 23.0223300248 1 90.0 120.0 3.0 6.5 90.0 120.0 True 4.0 180.0 120.0 1.75 3.0 2685.16874272 3.82422304153
81 286.714472914 346.796682338 -1 90.0 120.0 3.0 6.5 90.0 120.0 False 4.0 180.0 120.0 1.75 3.0 -2516.78552709 4.45701098442
82 340.329352671 160.567901138 1 90.0 120.0 3.0 6.5 90.0 120.0 False 4.0 180.0 120.0 0.75 3.0 1217.82935267 3.25864887238
83 41.6753505318 194.078538682 -1 90.0 120.0 3.0 6.5 90.0 120.0 False 4.0 180.0 120.0 0.75 3.0 -676.074649468 2.66581201553
84 111.190651321 8.81045809512 -1 90.0 120.0 3.0 6.5 90.0 120.0 True 4.0 180.0 120.0 0.75 3.0 -509.809348679 2.30761098862
85 41.5077244826 99.466883184 1 90.0 120.0 3.0 6.5 90.0 120.0 True 4.0 180.0 120.0 2.0 3.0 2117.50772448 2.89158797264
86 299.733801204 138.308353135 -1 90.0 120.0 3.0 6.5 90.0 120.0 False 4.0 180.0 120.0 2.25 3.0 -2278.7661988 3.19089508057
87 83.2334555237 304.031218369 -1 90.0 120.0 3.0 6.5 90.0 120.0 True 4.0 180.0 120.0 1.75 3.0 -1901.26654448 3.15096306801
88 198.724571746 284.917963314 1 90.0 120.0 3.0 6.5 90.0 120.0 True 4.0 180.0 120.0 1.25 3.0 1601.22457175 3.11907100677
89 322.616520312 126.664727939 1 90.0 120.0 3.0 6.5 90.0 120.0 True 4.0 180.0 120.0 2.5 3.0 3360.11652031 3.38231801987
90 231.056669769 292.501571425 1 90.0 120.0 3.0 6.5 90.0 120.0 True 4.0 180.0 120.0 0.75 3.0 845.306669769 2.28266811371
91 95.3950743686 77.8105967318 1 90.0 120.0 3.0 6.5 90.0 120.0 True 4.0 180.0 120.0 1.5 3.0 3123.89507437 5.61638212204
92 353.736152677 12.9055384507 -1 90.0 120.0 3.0 6.5 90.0 120.0 False 4.0 180.0 120.0 2.5 3.0 -2323.76384732 2.98187208176
93 179.605236868 172.867433909 1 90.0 120.0 3.0 6.5 90.0 120.0 False 4.0 180.0 120.0 2.75 3.0 4345.85523687 4.21591806412
94 325.643675308 100.038337043 1 90.0 120.0 3.0 6.5 90.0 120.0 False 4.0 180.0 120.0 2.5 3.0 3348.14367531 3.36662578583
95 357.662641891 136.471524693 -1 90.0 120.0 3.0 6.5 90.0 120.0 False 4.0 180.0 120.0 2.75 3.0 -2826.83735811 3.22436308861
96 182.844048596 233.115561355 -1 90.0 120.0 3.0 6.5 90.0 120.0 False 4.0 180.0 120.0 1.25 3.0 -1587.1559514 3.93469405174
97 323.750049153 139.355991436 1 90.0 120.0 3.0 6.5 90.0 120.0 False 4.0 180.0 120.0 2.25 3.0 2868.50004915 3.14859104156
98 250.173436878 153.3125278 -1 90.0 120.0 3.0 6.5 90.0 120.0 False 4.0 180.0 120.0 1.0 3.0 -1084.82656312 3.70895814896
99 16.7671888226 326.422358535 1 90.0 120.0 3.0 6.5 90.0 120.0 False 4.0 180.0 120.0 1.75 3.0 2610.26718882 4.11716103554
100 70.4885599165 14.7101644955 -1 90.0 120.0 3.0 6.5 90.0 120.0 True 4.0 180.0 120.0 2.0 3.0 -2251.51144008 3.23302507401
101 20.6267833926 314.087285563 1 90.0 120.0 3.0 6.5 90.0 120.0 False 4.0 180.0 120.0 1.25 3.0 1790.62678339 3.94137692451
102 66.5313766689 157.141430281 -1 90.0 120.0 3.0 6.5 90.0 120.0 False 4.0 180.0 120.0 1.5 3.0 -2111.46862333 4.04197597504
103 359.0426298 260.298886124 -1 90.0 120.0 3.0 6.5 90.0 120.0 True 4.0 180.0 120.0 2.25 3.0 -2739.2073702 3.83186006546
104 11.9901619779 222.972776005 1 90.0 120.0 3.0 6.5 90.0 120.0 False 4.0 180.0 120.0 1.5 3.0 2117.99016198 3.90135097504
105 347.215211864 118.62979689 1 90.0 120.0 3.0 6.5 90.0 120.0 False 4.0 180.0 120.0 1.0 3.0 1739.21521186 3.86714100838
106 51.4340101209 292.976303263 -1 90.0 120.0 3.0 6.5 90.0 120.0 True 4.0 180.0 120.0 1.0 3.0 -1160.56598988 3.37483501434
107 330.718148601 269.235299468 -1 90.0 120.0 3.0 6.5 90.0 120.0 True 4.0 180.0 120.0 1.5 3.0 -1122.7818514 2.69936800003
108 325.631965206 96.8808179643 -1 90.0 120.0 3.0 6.5 90.0 120.0 True 4.0 180.0 120.0 2.75 3.0 -4088.11803479 4.45942282677
