trial angleIni angleLandmark direction durationRampingIni durationFinal sizeLandmark radiusLandmark durationRampingFinal durationIni same radius duration durationRampingLand freq size response responseTime
1 100.841548029 315.734595719 1 90.0 120.0 3.0 6.5 90.0 120.0 False 4.0 180.0 120.0 1.75 3.0 1686.34154803 2.52888298035
2 79.3925843395 219.6694748 1 90.0 120.0 3.0 6.5 90.0 120.0 True 4.0 180.0 120.0 1.0 3.0 955.392584339 2.44158697128
3 31.32730722 102.544608662 1 90.0 120.0 3.0 6.5 90.0 120.0 True 4.0 180.0 120.0 1.25 3.0 1400.07730722 3.04929018021
4 351.857322478 215.519410024 -1 90.0 120.0 3.0 6.5 90.0 120.0 True 4.0 180.0 120.0 1.25 3.0 -1583.14267752 4.30752897263
5 103.277056206 137.787399311 1 90.0 120.0 3.0 6.5 90.0 120.0 True 4.0 180.0 120.0 2.75 3.0 2784.52705621 2.71557402611
6 206.025251133 23.0732420121 -1 90.0 120.0 3.0 6.5 90.0 120.0 False 4.0 180.0 120.0 2.75 3.0 -3770.47474887 4.01692414284
7 222.977514529 259.752699383 -1 90.0 120.0 3.0 6.5 90.0 120.0 False 4.0 180.0 120.0 1.75 3.0 -2165.77248547 3.79388999939
8 339.63889847 268.360685076 1 90.0 120.0 3.0 6.5 90.0 120.0 False 4.0 180.0 120.0 1.25 3.0 2840.88889847 5.56640195847
9 318.544006567 151.328935698 -1 90.0 120.0 3.0 6.5 90.0 120.0 False 4.0 180.0 120.0 1.5 3.0 -1980.95599343 4.26694393158
10 42.2210005574 66.0569934103 -1 90.0 120.0 3.0 6.5 90.0 120.0 False 4.0 180.0 120.0 0.75 3.0 -878.028999443 3.4166829586
11 58.6200044139 10.8863576474 1 90.0 120.0 3.0 6.5 90.0 120.0 False 4.0 180.0 120.0 0.75 3.0 1095.87000441 3.84934902191
12 289.660512508 191.09889401 1 90.0 120.0 3.0 6.5 90.0 120.0 False 4.0 180.0 120.0 3.0 3.0 3637.66051251 3.10857200623
13 161.114734753 212.126366041 -1 90.0 120.0 3.0 6.5 90.0 120.0 True 4.0 180.0 120.0 3.0 3.0 -2871.88526525 2.81612205505
14 209.873862808 273.1698099 -1 90.0 120.0 3.0 6.5 90.0 120.0 True 4.0 180.0 120.0 3.25 3.0 -2520.12613719 2.33462190628
15 55.6283257447 235.977818824 -1 90.0 120.0 3.0 6.5 90.0 120.0 False 4.0 180.0 120.0 3.25 3.0 -2869.37167426 2.50721001625
16 216.777979779 156.372605404 -1 90.0 120.0 3.0 6.5 90.0 120.0 False 4.0 180.0 120.0 2.5 3.0 -2873.22202022 3.44118094444
17 302.381754883 307.034995477 -1 90.0 120.0 3.0 6.5 90.0 120.0 True 4.0 180.0 120.0 2.0 3.0 -2361.61824512 3.70756196976
18 347.91266648 269.738249472 1 90.0 120.0 3.0 6.5 90.0 120.0 False 4.0 180.0 120.0 3.25 3.0 3136.41266648 2.39191794395
19 2.41576192096 193.757305661 -1 90.0 120.0 3.0 6.5 90.0 120.0 True 4.0 180.0 120.0 0.75 3.0 -875.084238079 3.25847482681
20 294.227852215 161.400567094 1 90.0 120.0 3.0 6.5 90.0 120.0 True 4.0 180.0 120.0 2.5 3.0 2896.72785221 2.89923787117
21 356.62988411 322.88480832 -1 90.0 120.0 3.0 6.5 90.0 120.0 False 4.0 180.0 120.0 2.0 3.0 -2493.37011589 3.96051120758
22 173.616496799 221.421073244 1 90.0 120.0 3.0 6.5 90.0 120.0 True 4.0 180.0 120.0 1.75 3.0 2462.6164968 3.64098501205
23 160.330750223 2.91051873633 -1 90.0 120.0 3.0 6.5 90.0 120.0 True 4.0 180.0 120.0 3.5 3.0 -2958.16924978 2.48198914528
24 120.434350113 182.763334364 1 90.0 120.0 3.0 6.5 90.0 120.0 True 4.0 180.0 120.0 3.5 3.0 5370.43435011 4.17506122589
25 48.1503262748 329.844414652 1 90.0 120.0 3.0 6.5 90.0 120.0 False 4.0 180.0 120.0 1.5 3.0 2635.65032627 4.79826712608
26 214.489710104 290.739589633 -1 90.0 120.0 3.0 6.5 90.0 120.0 True 4.0 180.0 120.0 1.5 3.0 -1212.0102899 2.64826607704
27 208.41393009 208.857421394 -1 90.0 120.0 3.0 6.5 90.0 120.0 False 4.0 180.0 120.0 3.5 3.0 -3970.58606991 3.31832718849
28 353.309231765 20.9394348059 -1 90.0 120.0 3.0 6.5 90.0 120.0 True 4.0 180.0 120.0 1.75 3.0 -3132.69076823 5.54185390472
29 58.1582219996 280.726830282 -1 90.0 120.0 3.0 6.5 90.0 120.0 False 4.0 180.0 120.0 1.0 3.0 -1351.841778 3.91752505302
30 226.643072908 45.9314480526 1 90.0 120.0 3.0 6.5 90.0 120.0 False 4.0 180.0 120.0 2.5 3.0 4351.64307291 4.59208917618
31 30.253529573 233.621568926 -1 90.0 120.0 3.0 6.5 90.0 120.0 False 4.0 180.0 120.0 2.25 3.0 -3945.49647043 4.9108440876
32 121.705109254 171.593609399 1 90.0 120.0 3.0 6.5 90.0 120.0 True 4.0 180.0 120.0 2.25 3.0 3577.70510925 4.27390003204
33 310.28902466 192.06598092 1 90.0 120.0 3.0 6.5 90.0 120.0 True 4.0 180.0 120.0 1.5 3.0 3469.28902466 5.85660099983
34 337.459784341 91.2168118042 -1 90.0 120.0 3.0 6.5 90.0 120.0 True 4.0 180.0 120.0 1.0 3.0 -1144.54021566 4.11635303497
35 80.1443930265 56.2066143114 -1 90.0 120.0 3.0 6.5 90.0 120.0 True 4.0 180.0 120.0 2.75 3.0 -2485.60560697 2.60022592545
36 229.061398409 324.108586742 1 90.0 120.0 3.0 6.5 90.0 120.0 False 4.0 180.0 120.0 3.5 3.0 3589.06139841 2.66808199883
37 343.463604635 168.526991496 1 90.0 120.0 3.0 6.5 90.0 120.0 False 4.0 180.0 120.0 1.0 3.0 1405.46360464 2.95666003227
38 268.499125846 54.3399949873 1 90.0 120.0 3.0 6.5 90.0 120.0 False 4.0 180.0 120.0 2.75 3.0 3518.99912585 3.28470516205
39 256.891059291 351.766843374 -1 90.0 120.0 3.0 6.5 90.0 120.0 False 4.0 180.0 120.0 3.0 3.0 -2236.10894071 2.31640911102
40 157.144079803 170.981332071 1 90.0 120.0 3.0 6.5 90.0 120.0 True 4.0 180.0 120.0 2.0 3.0 2947.1440798 3.87687206268
41 135.57423757 301.542847392 1 90.0 120.0 3.0 6.5 90.0 120.0 True 4.0 180.0 120.0 3.25 3.0 2904.57423757 2.37308096886
42 62.2216236402 145.037398182 -1 90.0 120.0 3.0 6.5 90.0 120.0 True 4.0 180.0 120.0 2.5 3.0 -4475.27837636 5.04931616783
43 83.5589067114 320.268289483 -1 90.0 120.0 3.0 6.5 90.0 120.0 False 4.0 180.0 120.0 1.25 3.0 -1112.69109329 2.66065001488
44 161.508741443 196.935524101 -1 90.0 120.0 3.0 6.5 90.0 120.0 True 4.0 180.0 120.0 2.25 3.0 -1681.24125856 2.28364086151
45 106.49891318 262.425056199 1 90.0 120.0 3.0 6.5 90.0 120.0 False 4.0 180.0 120.0 2.25 3.0 1996.49891318 2.34174394608
46 315.114220293 102.218301017 1 90.0 120.0 3.0 6.5 90.0 120.0 True 4.0 180.0 120.0 0.75 3.0 994.614220293 2.52428007126
47 130.905859854 240.976302199 1 90.0 120.0 3.0 6.5 90.0 120.0 True 4.0 180.0 120.0 3.0 3.0 None None
48 147.725865897 321.376700002 1 90.0 120.0 3.0 6.5 90.0 120.0 False 4.0 180.0 120.0 2.0 3.0 1809.7258659 2.31506705284
49 60.3782383445 335.577275992 1 90.0 120.0 3.0 6.5 90.0 120.0 True 4.0 180.0 120.0 2.25 3.0 1990.87823834 2.39058613777
50 223.846150395 152.184082488 1 90.0 120.0 3.0 6.5 90.0 120.0 False 4.0 180.0 120.0 1.75 3.0 3389.59615039 5.03380990028
51 345.0236912 113.124690473 -1 90.0 120.0 3.0 6.5 90.0 120.0 True 4.0 180.0 120.0 3.0 3.0 -2336.9763088 2.49097490311
52 123.661118995 253.777646665 -1 90.0 120.0 3.0 6.5 90.0 120.0 True 4.0 180.0 120.0 1.5 3.0 -2900.33888101 5.60768198967
53 312.797113618 119.186239442 1 90.0 120.0 3.0 6.5 90.0 120.0 True 4.0 180.0 120.0 2.5 3.0 2487.79711362 2.41796398163
54 172.367940667 269.377803253 1 90.0 120.0 3.0 6.5 90.0 120.0 True 4.0 180.0 120.0 3.25 3.0 None None
55 166.916685029 204.801454871 -1 90.0 120.0 3.0 6.5 90.0 120.0 False 4.0 180.0 120.0 1.75 3.0 -641.583314971 1.29104113579
56 169.602319468 353.556581049 -1 90.0 120.0 3.0 6.5 90.0 120.0 False 4.0 180.0 120.0 2.5 3.0 -2177.89768053 2.60927319527
57 85.073358999 289.359262603 -1 90.0 120.0 3.0 6.5 90.0 120.0 True 4.0 180.0 120.0 0.75 3.0 -596.676641001 2.53254103661
58 181.794415663 234.84852051 1 90.0 120.0 3.0 6.5 90.0 120.0 True 4.0 180.0 120.0 1.75 3.0 1993.04441566 2.88164901733
59 289.293318264 176.569028989 -1 90.0 120.0 3.0 6.5 90.0 120.0 True 4.0 180.0 120.0 1.75 3.0 -1700.45668174 3.16506004333
60 273.819613568 338.0448102 1 90.0 120.0 3.0 6.5 90.0 120.0 False 4.0 180.0 120.0 0.75 3.0 1223.31961357 3.52479600906
61 274.920334311 45.7018200453 1 90.0 120.0 3.0 6.5 90.0 120.0 True 4.0 180.0 120.0 2.75 3.0 439.920334311 0.174848079681
62 218.555080502 158.682283472 -1 90.0 120.0 3.0 6.5 90.0 120.0 True 4.0 180.0 120.0 2.75 3.0 -2404.9449195 2.65785813332
63 338.180369627 182.816419427 -1 90.0 120.0 3.0 6.5 90.0 120.0 False 4.0 180.0 120.0 3.0 3.0 -2118.81963037 2.28251099586
64 114.775462399 98.9655649712 1 90.0 120.0 3.0 6.5 90.0 120.0 False 4.0 180.0 120.0 3.0 3.0 3174.7754624 2.84154605865
65 256.543314192 308.440368604 1 90.0 120.0 3.0 6.5 90.0 120.0 True 4.0 180.0 120.0 0.75 3.0 1010.29331419 2.79329013824
66 163.24567728 248.345812714 -1 90.0 120.0 3.0 6.5 90.0 120.0 False 4.0 180.0 120.0 0.75 3.0 -610.75432272 2.87400102615
67 226.148727304 141.472629021 1 90.0 120.0 3.0 6.5 90.0 120.0 False 4.0 180.0 120.0 1.0 3.0 1390.1487273 3.24105215073
68 14.3069288706 24.9518741832 -1 90.0 120.0 3.0 6.5 90.0 120.0 True 4.0 180.0 120.0 1.25 3.0 -1601.94307113 3.59239387512
69 58.4525493307 38.8067953093 1 90.0 120.0 3.0 6.5 90.0 120.0 False 4.0 180.0 120.0 2.5 3.0 2735.95254933 2.97568488121
70 212.008808997 315.703500982 -1 90.0 120.0 3.0 6.5 90.0 120.0 False 4.0 180.0 120.0 2.75 3.0 -2452.741191 2.69950985909
71 102.914177493 73.3166279947 1 90.0 120.0 3.0 6.5 90.0 120.0 True 4.0 180.0 120.0 3.0 3.0 2784.91417749 2.49077296257
72 299.352824232 177.369297322 1 90.0 120.0 3.0 6.5 90.0 120.0 True 4.0 180.0 120.0 1.5 3.0 2063.35282423 3.2743229866
73 141.660172172 202.779415795 -1 90.0 120.0 3.0 6.5 90.0 120.0 False 4.0 180.0 120.0 1.0 3.0 -1223.33982783 3.79920816422
74 42.7504337344 206.164605973 1 90.0 120.0 3.0 6.5 90.0 120.0 True 4.0 180.0 120.0 2.0 3.0 3006.75043373 4.12438321114
75 326.679980505 330.177597365 1 90.0 120.0 3.0 6.5 90.0 120.0 False 4.0 180.0 120.0 1.25 3.0 2501.6799805 4.84067082405
76 249.503207081 268.258415452 1 90.0 120.0 3.0 6.5 90.0 120.0 False 4.0 180.0 120.0 1.5 3.0 2211.50320708 3.64043807983
77 351.847468525 43.699653288 -1 90.0 120.0 3.0 6.5 90.0 120.0 True 4.0 180.0 120.0 3.25 3.0 -3743.15253147 3.50827097893
78 288.311248885 251.513076458 1 90.0 120.0 3.0 6.5 90.0 120.0 False 4.0 180.0 120.0 2.75 3.0 3802.81124888 3.55210804939
79 123.993768134 177.408660133 -1 90.0 120.0 3.0 6.5 90.0 120.0 False 4.0 180.0 120.0 1.25 3.0 -1282.25623187 3.12612605095
80 85.0420004655 105.905315921 -1 90.0 120.0 3.0 6.5 90.0 120.0 False 4.0 180.0 120.0 2.25 3.0 -1973.70799953 2.55042886734
81 11.688687144 296.181110426 -1 90.0 120.0 3.0 6.5 90.0 120.0 True 4.0 180.0 120.0 1.0 3.0 -1686.31131286 4.72544384003
82 61.5168714044 182.29350892 -1 90.0 120.0 3.0 6.5 90.0 120.0 False 4.0 180.0 120.0 3.25 3.0 -2424.7331286 2.12762498856
83 359.098438988 263.050482022 1 90.0 120.0 3.0 6.5 90.0 120.0 True 4.0 180.0 120.0 1.0 3.0 1577.09843899 3.38994312286
84 214.914596347 184.118593319 -1 90.0 120.0 3.0 6.5 90.0 120.0 False 4.0 180.0 120.0 3.5 3.0 -3071.58540365 2.61526298523
85 349.811506749 139.143730485 -1 90.0 120.0 3.0 6.5 90.0 120.0 False 4.0 180.0 120.0 2.0 3.0 -2764.18849325 4.32627701759
86 36.3491098342 338.540028673 -1 90.0 120.0 3.0 6.5 90.0 120.0 True 4.0 180.0 120.0 2.5 3.0 -4448.65089017 4.99125909805
87 215.940491738 108.410818593 1 90.0 120.0 3.0 6.5 90.0 120.0 False 4.0 180.0 120.0 2.0 3.0 3065.94049174 3.96491003036
88 117.969431094 214.986731757 1 90.0 120.0 3.0 6.5 90.0 120.0 False 4.0 180.0 120.0 2.25 3.0 3047.46943109 3.62385606766
89 132.523201704 107.554400423 1 90.0 120.0 3.0 6.5 90.0 120.0 True 4.0 180.0 120.0 3.5 3.0 3419.0232017 2.61677193642
90 159.527693128 228.928035471 -1 90.0 120.0 3.0 6.5 90.0 120.0 False 4.0 180.0 120.0 1.5 3.0 -1622.47230687 3.30050897598
91 105.265196431 195.877950979 1 90.0 120.0 3.0 6.5 90.0 120.0 False 4.0 180.0 120.0 3.5 3.0 3696.26519643 2.85814189911
92 111.484052454 138.870337811 -1 90.0 120.0 3.0 6.5 90.0 120.0 True 4.0 180.0 120.0 3.5 3.0 -3196.01594755 2.6326482296
93 198.699473756 331.761552484 -1 90.0 120.0 3.0 6.5 90.0 120.0 True 4.0 180.0 120.0 2.25 3.0 -3216.80052624 4.22522687912
94 6.39973668916 220.300056893 -1 90.0 120.0 3.0 6.5 90.0 120.0 True 4.0 180.0 120.0 2.0 3.0 -2621.60026331 3.65743994713
95 2.13165459173 187.253946746 1 90.0 120.0 3.0 6.5 90.0 120.0 True 4.0 180.0 120.0 1.25 3.0 1633.38165459 3.63323402405
96 218.032938451 160.496189291 1 90.0 120.0 3.0 6.5 90.0 120.0 False 4.0 180.0 120.0 3.25 3.0 3308.78293845 2.64353704453
97 48.5341589335 36.7587117743 1 90.0 120.0 3.0 6.5 90.0 120.0 False 4.0 180.0 120.0 0.75 3.0 910.284158933 3.19878005981
98 49.7574729104 215.741894877 -1 90.0 120.0 3.0 6.5 90.0 120.0 True 4.0 180.0 120.0 1.5 3.0 -1381.24252709 2.65138292313
99 211.747935533 98.9028578093 -1 90.0 120.0 3.0 6.5 90.0 120.0 False 4.0 180.0 120.0 2.25 3.0 -2589.50206447 3.45989990234
100 31.3862592379 89.3658249185 -1 90.0 120.0 3.0 6.5 90.0 120.0 False 4.0 180.0 120.0 2.5 3.0 -2218.61374076 2.50871086121
101 343.722175036 154.691539826 -1 90.0 120.0 3.0 6.5 90.0 120.0 False 4.0 180.0 120.0 0.75 3.0 -545.027824964 3.29874706268
102 129.313878417 207.23826764 -1 90.0 120.0 3.0 6.5 90.0 120.0 False 4.0 180.0 120.0 2.0 3.0 -1736.68612158 2.59903907776
103 355.36978922 246.692682074 1 90.0 120.0 3.0 6.5 90.0 120.0 True 4.0 180.0 120.0 2.0 3.0 2311.36978922 2.72370815277
104 110.699071375 22.3833913756 -1 90.0 120.0 3.0 6.5 90.0 120.0 True 4.0 180.0 120.0 3.5 3.0 -3186.30092862 2.61811494827
105 133.734873559 233.161100065 -1 90.0 120.0 3.0 6.5 90.0 120.0 True 4.0 180.0 120.0 2.75 3.0 -3686.01512644 3.85936498642
106 171.478309122 110.392819968 -1 90.0 120.0 3.0 6.5 90.0 120.0 True 4.0 180.0 120.0 2.0 3.0 -1994.52169088 3.01556897163
107 9.43657681128 161.039940664 1 90.0 120.0 3.0 6.5 90.0 120.0 False 4.0 180.0 120.0 3.0 3.0 2763.43657681 2.55819797516
108 319.973314259 82.7457873049 1 90.0 120.0 3.0 6.5 90.0 120.0 False 4.0 180.0 120.0 2.5 3.0 3627.47331426 3.68249893188
109 146.711763343 48.9939875323 -1 90.0 120.0 3.0 6.5 90.0 120.0 True 4.0 180.0 120.0 1.75 3.0 -2347.03823666 3.96706485748
110 180.183524189 67.2547246669 1 90.0 120.0 3.0 6.5 90.0 120.0 True 4.0 180.0 120.0 1.5 3.0 3037.68352419 5.29829907417
111 357.501457927 295.258508468 1 90.0 120.0 3.0 6.5 90.0 120.0 True 4.0 180.0 120.0 3.25 3.0 2921.75145793 2.19417905807
112 293.921075248 314.077612707 1 90.0 120.0 3.0 6.5 90.0 120.0 False 4.0 180.0 120.0 3.25 3.0 2945.92107525 2.27396202087
113 180.705595618 44.7612492311 1 90.0 120.0 3.0 6.5 90.0 120.0 False 4.0 180.0 120.0 2.0 3.0 2082.70559562 2.64303207397
114 179.77116575 161.579344911 1 90.0 120.0 3.0 6.5 90.0 120.0 True 4.0 180.0 120.0 3.0 3.0 3023.77116575 2.64174795151
115 217.355030835 64.3577250705 1 90.0 120.0 3.0 6.5 90.0 120.0 False 4.0 180.0 120.0 1.0 3.0 1459.35503084 3.45789504051
116 270.013385361 15.1329654958 -1 90.0 120.0 3.0 6.5 90.0 120.0 True 4.0 180.0 120.0 1.25 3.0 -1087.48661464 3.01768493652
117 126.804520891 80.8544146844 -1 90.0 120.0 3.0 6.5 90.0 120.0 True 4.0 180.0 120.0 0.75 3.0 -791.195479109 3.40076994896
118 234.725769941 110.054029115 -1 90.0 120.0 3.0 6.5 90.0 120.0 True 4.0 180.0 120.0 2.25 3.0 -1857.77423006 2.58467698097
119 169.078873771 90.8808310558 1 90.0 120.0 3.0 6.5 90.0 120.0 False 4.0 180.0 120.0 1.25 3.0 2029.07887377 4.14189219475
120 97.2938399008 57.0702792024 -1 90.0 120.0 3.0 6.5 90.0 120.0 True 4.0 180.0 120.0 3.25 3.0 -3578.4561601 3.14934492111
121 138.82045721 125.004663398 1 90.0 120.0 3.0 6.5 90.0 120.0 False 4.0 180.0 120.0 2.25 3.0 2514.82045721 2.94158482552
122 76.2082997233 142.459783015 -1 90.0 120.0 3.0 6.5 90.0 120.0 False 4.0 180.0 120.0 1.75 3.0 -2428.04170028 3.97750711441
123 352.262589536 289.359924563 -1 90.0 120.0 3.0 6.5 90.0 120.0 True 4.0 180.0 120.0 3.0 3.0 -2482.73741046 2.63272404671
124 95.3340597162 265.647194443 1 90.0 120.0 3.0 6.5 90.0 120.0 True 4.0 180.0 120.0 2.25 3.0 3031.58405972 3.63279795647
125 57.5657824366 171.882248618 1 90.0 120.0 3.0 6.5 90.0 120.0 False 4.0 180.0 120.0 2.75 3.0 2928.56578244 2.9069890976
126 285.135591231 325.956401259 1 90.0 120.0 3.0 6.5 90.0 120.0 False 4.0 180.0 120.0 3.5 3.0 3193.63559123 2.31578087807
127 195.653659282 140.342617346 1 90.0 120.0 3.0 6.5 90.0 120.0 False 4.0 180.0 120.0 1.5 3.0 2526.65365928 4.32332801819
128 83.8170590426 102.253568251 1 90.0 120.0 3.0 6.5 90.0 120.0 True 4.0 180.0 120.0 1.0 3.0 1841.81705904 4.89150190353
129 3.56006726702 254.32403762 -1 90.0 120.0 3.0 6.5 90.0 120.0 False 4.0 180.0 120.0 3.5 3.0 -3177.93993273 2.52638316154
130 276.857338296 19.2811438167 1 90.0 120.0 3.0 6.5 90.0 120.0 True 4.0 180.0 120.0 2.5 3.0 3239.3573383 3.29928398132
131 137.529565209 96.2419771773 -1 90.0 120.0 3.0 6.5 90.0 120.0 False 4.0 180.0 120.0 1.5 3.0 -2188.97043479 4.31629300117
132 76.0155096435 180.040280502 -1 90.0 120.0 3.0 6.5 90.0 120.0 False 4.0 180.0 120.0 1.25 3.0 -2368.98449036 5.44163680077
133 151.147102915 296.679375561 1 90.0 120.0 3.0 6.5 90.0 120.0 True 4.0 180.0 120.0 2.75 3.0 2634.39710292 2.51669597626
134 171.544915984 44.4858914683 1 90.0 120.0 3.0 6.5 90.0 120.0 True 4.0 180.0 120.0 1.25 3.0 1529.04491598 3.02516818047
135 44.0861499635 341.888765371 1 90.0 120.0 3.0 6.5 90.0 120.0 False 4.0 180.0 120.0 1.75 3.0 1734.58614996 2.68956422806
136 202.76583671 117.705069854 1 90.0 120.0 3.0 6.5 90.0 120.0 True 4.0 180.0 120.0 1.75 3.0 2234.51583671 3.23298788071
137 185.624086511 188.53691413 -1 90.0 120.0 3.0 6.5 90.0 120.0 False 4.0 180.0 120.0 3.0 3.0 -2244.37591349 2.25682020187
138 145.378518611 18.7496604811 -1 90.0 120.0 3.0 6.5 90.0 120.0 False 4.0 180.0 120.0 2.75 3.0 -2420.37148139 2.59968590736
139 47.0930336938 301.254234686 -1 90.0 120.0 3.0 6.5 90.0 120.0 True 4.0 180.0 120.0 2.5 3.0 -3425.40696631 3.86603784561
140 354.660344252 203.590116163 1 90.0 120.0 3.0 6.5 90.0 120.0 True 4.0 180.0 120.0 0.75 3.0 1277.16034425 3.424669981
141 2.54393286744 165.524023096 -1 90.0 120.0 3.0 6.5 90.0 120.0 True 4.0 180.0 120.0 1.0 3.0 -1461.45606713 4.07458400726
142 262.28673307 223.963294019 -1 90.0 120.0 3.0 6.5 90.0 120.0 False 4.0 180.0 120.0 1.0 3.0 -775.71326693 2.89006495476
143 124.977941915 23.8739921661 1 90.0 120.0 3.0 6.5 90.0 120.0 True 4.0 180.0 120.0 3.5 3.0 3589.97794192 2.75699710846
144 145.058814381 342.566020363 -1 90.0 120.0 3.0 6.5 90.0 120.0 False 4.0 180.0 120.0 3.25 3.0 -2926.19118562 2.63196897507
